timestamp_pc,accel_x,accel_y,accel_z
2025-06-04T19:32:42.085405,10.208876,0.215478,-2.197877
2025-06-04T19:32:42.085405,10.208876,0.237026,-2.185906
2025-06-04T19:32:46.492881,10.220847,0.208296,-2.248155
2025-06-04T19:32:46.492881,10.199299,0.215478,-2.217031
2025-06-04T19:32:46.492881,10.208876,0.205901,-2.195483
2025-06-04T19:32:46.492881,10.230424,0.205901,-2.226608
2025-06-04T19:32:46.492881,10.206482,0.213084,-2.229002
2025-06-04T19:32:46.492881,10.21127,0.208296,-2.195483
2025-06-04T19:32:46.492881,10.223241,0.203507,-2.197877
2025-06-04T19:32:46.492881,10.223241,0.217872,-2.20506
2025-06-04T19:32:46.492881,10.204087,0.208296,-2.200271
2025-06-04T19:32:46.492881,10.196905,0.220267,-2.209848
2025-06-04T19:32:46.492881,10.21127,0.217872,-2.243367
2025-06-04T19:32:46.492881,10.213664,0.198719,-2.238579
2025-06-04T19:32:46.492881,10.213664,0.208296,-2.200271
2025-06-04T19:32:46.492881,10.19451,0.21069,-2.193089
2025-06-04T19:32:46.500810,10.213664,0.222661,-2.219425
2025-06-04T19:32:46.500810,10.228029,0.19393,-2.221819
2025-06-04T19:32:46.500810,10.208876,0.217872,-2.207454
2025-06-04T19:32:46.500810,10.21127,0.213084,-2.212242
2025-06-04T19:32:46.500810,10.230424,0.205901,-2.240973
2025-06-04T19:32:46.500810,10.225636,0.205901,-2.217031
2025-06-04T19:32:46.500810,10.220847,0.225055,-2.217031
2025-06-04T19:32:46.500810,10.208876,0.232238,-2.214637
2025-06-04T19:32:46.500810,10.206482,0.244209,-2.231396
2025-06-04T19:32:46.500810,10.206482,0.208296,-2.183512
2025-06-04T19:32:46.500810,10.216059,0.220267,-2.193089
2025-06-04T19:32:46.509191,10.206482,0.222661,-2.214637
2025-06-04T19:32:46.509716,10.228029,0.213084,-2.200271
2025-06-04T19:32:46.509716,10.232818,0.201113,-2.209848
2025-06-04T19:32:46.509716,10.21127,0.220267,-2.190695
2025-06-04T19:32:46.509716,10.208876,0.222661,-2.219425
2025-06-04T19:32:46.509716,10.472239,0.114922,-2.755726
2025-06-04T19:32:46.509716,10.010158,0.399832,-2.037466
2025-06-04T19:32:46.509716,10.699687,0.347159,-2.442086
2025-06-04T19:32:46.509716,10.398018,0.287304,-2.286463
2025-06-04T19:32:46.517946,10.113108,0.301669,-2.346318
2025-06-04T19:32:46.518606,10.04607,0.201113,-2.193089
2025-06-04T19:32:46.518606,10.06283,0.167594,-2.171541
2025-06-04T19:32:46.518606,10.110714,0.179565,-2.1883
2025-06-04T19:32:46.518606,10.132261,0.179565,-2.166753
2025-06-04T19:32:46.518606,10.149021,0.179565,-2.197877
2025-06-04T19:32:46.518606,10.216059,0.189142,-2.183512
2025-06-04T19:32:46.518606,10.199299,0.198719,-2.190695
2025-06-04T19:32:46.518606,10.218452,0.227449,-2.207454
2025-06-04T19:32:46.518606,10.213664,0.222661,-2.221819
2025-06-04T19:32:46.518606,25.107994,4.110844,-10.673351
2025-06-04T19:32:46.518606,11.164163,-0.560243,-1.369483
2025-06-04T19:32:46.518606,10.002975,-0.59855,-2.111686
2025-06-04T19:32:46.526024,10.33098,0.102951,-2.066196
2025-06-04T19:32:46.526024,10.345345,0.160412,-2.142811
2025-06-04T19:32:46.526024,10.297462,0.167594,-2.061408
2025-06-04T19:32:46.526024,10.493786,0.301669,-2.348712
2025-06-04T19:32:46.526024,10.496181,0.347159,-2.367866
2025-06-04T19:32:46.526024,10.323798,0.260968,-2.262521
2025-06-04T19:32:46.526024,10.261548,0.253785,-2.240973
2025-06-04T19:32:46.526024,10.228029,0.244209,-2.221819
2025-06-04T19:32:46.526024,10.242394,0.248997,-2.240973
2025-06-04T19:32:46.526024,10.175357,0.215478,-2.200271
2025-06-04T19:32:46.526024,10.177752,0.213084,-2.197877
2025-06-04T19:32:46.526024,10.160992,0.196325,-2.200271
2025-06-04T19:32:46.533705,10.187328,0.201113,-2.183512
2025-06-04T19:32:46.533705,10.213664,0.201113,-2.200271
2025-06-04T19:32:46.533705,10.192117,0.220267,-2.209848
2025-06-04T19:32:46.533705,10.199299,0.201113,-2.202666
2025-06-04T19:32:46.533705,10.206482,0.241814,-2.190695
2025-06-04T19:32:46.533705,10.208876,0.215478,-2.214637
2025-06-04T19:32:46.533705,10.218452,0.225055,-2.252944
2025-06-04T19:32:46.533705,10.216059,0.213084,-2.197877
2025-06-04T19:32:46.533705,10.204087,0.217872,-2.229002
2025-06-04T19:32:46.533705,10.223241,0.217872,-2.1883
2025-06-04T19:32:46.533705,10.244789,0.225055,-2.202666
2025-06-04T19:32:46.533705,10.216059,0.227449,-2.224213
2025-06-04T19:32:46.542032,10.21127,0.217872,-2.231396
2025-06-04T19:32:46.542032,10.225636,0.237026,-2.217031
2025-06-04T19:32:46.542032,10.213664,0.234632,-2.214637
2025-06-04T19:32:46.542032,10.206482,0.227449,-2.202666
2025-06-04T19:32:46.542032,10.206482,0.222661,-2.1883
2025-06-04T19:32:46.542032,10.204087,0.225055,-2.23379
2025-06-04T19:32:46.542032,10.208876,0.222661,-2.224213
2025-06-04T19:32:46.542032,10.216059,0.225055,-2.20506
2025-06-04T19:32:46.542032,10.223241,0.227449,-2.243367
2025-06-04T19:32:46.542032,10.218452,0.229843,-2.20506
2025-06-04T19:32:46.542032,10.206482,0.234632,-2.236184
2025-06-04T19:32:46.542032,10.218452,0.246603,-2.195483
2025-06-04T19:32:46.542032,10.206482,0.215478,-2.236184
2025-06-04T19:32:46.542032,10.216059,0.220267,-2.236184
2025-06-04T19:32:46.542032,10.206482,0.220267,-2.207454
2025-06-04T19:32:46.542032,10.230424,0.217872,-2.226608
2025-06-04T19:32:46.542032,10.21127,0.220267,-2.193089
2025-06-04T19:32:46.542032,10.235212,0.217872,-2.221819
2025-06-04T19:32:46.542032,10.235212,0.215478,-2.229002
2025-06-04T19:32:46.550469,10.21127,0.215478,-2.212242
2025-06-04T19:32:46.550469,10.220847,0.232238,-2.209848
2025-06-04T19:32:46.550469,10.223241,0.237026,-2.224213
2025-06-04T19:32:46.550469,10.235212,0.215478,-2.217031
2025-06-04T19:32:46.550469,10.204087,0.232238,-2.209848
2025-06-04T19:32:46.550469,10.204087,0.215478,-2.207454
2025-06-04T19:32:46.550469,10.196905,0.213084,-2.195483
2025-06-04T19:32:46.550469,10.208876,0.213084,-2.214637
2025-06-04T19:32:46.550469,10.21127,0.220267,-2.207454
2025-06-04T19:32:46.550469,10.21127,0.208296,-2.219425
2025-06-04T19:32:46.550469,10.213664,0.215478,-2.226608
2025-06-04T19:32:46.550469,10.199299,0.217872,-2.231396
2025-06-04T19:32:46.550469,10.208876,0.225055,-2.224213
2025-06-04T19:32:46.550469,10.196905,0.217872,-2.217031
2025-06-04T19:32:46.550469,10.201694,0.213084,-2.224213
2025-06-04T19:32:46.558747,10.199299,0.220267,-2.226608
2025-06-04T19:32:46.558747,10.213664,0.203507,-2.202666
2025-06-04T19:32:46.558747,10.218452,0.220267,-2.197877
2025-06-04T19:32:46.558747,10.240001,0.229843,-2.197877
2025-06-04T19:32:46.558747,10.218452,0.237026,-2.200271
2025-06-04T19:32:46.558747,10.223241,0.205901,-2.207454
2025-06-04T19:32:46.558747,10.192117,0.215478,-2.245761
2025-06-04T19:32:46.558747,10.218452,0.222661,-2.209848
2025-06-04T19:32:46.558747,10.220847,0.220267,-2.207454
2025-06-04T19:32:46.558747,10.21127,0.220267,-2.193089
2025-06-04T19:32:46.558747,10.225636,0.227449,-2.20506
2025-06-04T19:32:46.558747,10.240001,0.205901,-2.185906
2025-06-04T19:32:46.558747,10.230424,0.213084,-2.238579
2025-06-04T19:32:46.558747,10.230424,0.246603,-2.214637
2025-06-04T19:32:46.558747,10.220847,0.227449,-2.221819
2025-06-04T19:32:46.558747,10.204087,0.21069,-2.231396
2025-06-04T19:32:46.558747,10.206482,0.220267,-2.226608
2025-06-04T19:32:46.558747,10.21127,0.225055,-2.219425
2025-06-04T19:32:46.558747,10.218452,0.220267,-2.209848
2025-06-04T19:32:46.558747,10.204087,0.23942,-2.226608
2025-06-04T19:32:46.566792,10.218452,0.220267,-2.23379
2025-06-04T19:32:46.567523,10.187328,0.227449,-2.236184
2025-06-04T19:32:46.567523,10.189722,0.208296,-2.224213
2025-06-04T19:32:46.567523,10.204087,0.205901,-2.229002
2025-06-04T19:32:46.567523,10.208876,0.222661,-2.193089
2025-06-04T19:32:46.567523,10.223241,0.208296,-2.193089
2025-06-04T19:32:46.567523,10.192117,0.205901,-2.226608
2025-06-04T19:32:46.567523,10.21127,0.21069,-2.221819
2025-06-04T19:32:46.567523,10.21127,0.215478,-2.195483
2025-06-04T19:32:46.567523,10.208876,0.21069,-2.212242
2025-06-04T19:32:46.567523,10.223241,0.215478,-2.221819
2025-06-04T19:32:46.567523,10.247183,0.220267,-2.1883
2025-06-04T19:32:46.567523,10.21127,0.229843,-2.185906
2025-06-04T19:32:46.567523,10.230424,0.21069,-2.221819
2025-06-04T19:32:46.567523,10.242394,0.215478,-2.224213
2025-06-04T19:32:46.567523,10.232818,0.227449,-2.209848
2025-06-04T19:32:46.567523,10.21127,0.205901,-2.209848
2025-06-04T19:32:46.567523,10.216059,0.217872,-2.226608
2025-06-04T19:32:46.567523,10.184934,0.222661,-2.212242
2025-06-04T19:32:46.567523,10.216059,0.232238,-2.217031
2025-06-04T19:32:46.567523,10.196905,0.215478,-2.217031
2025-06-04T19:32:46.575069,10.223241,0.19393,-2.209848
2025-06-04T19:32:46.575069,10.237606,0.232238,-2.214637
2025-06-04T19:32:46.575819,10.216059,0.229843,-2.224213
2025-06-04T19:32:46.575819,10.220847,0.225055,-2.221819
2025-06-04T19:32:46.575819,10.223241,0.205901,-2.221819
2025-06-04T19:32:46.575819,10.196905,0.225055,-2.217031
2025-06-04T19:32:46.575819,10.213664,0.217872,-2.200271
2025-06-04T19:32:46.575819,10.208876,0.222661,-2.212242
2025-06-04T19:32:46.575819,10.228029,0.215478,-2.20506
2025-06-04T19:32:46.575819,10.223241,0.208296,-2.23379
2025-06-04T19:32:46.575819,10.216059,0.203507,-2.209848
2025-06-04T19:32:46.575819,10.225636,0.237026,-2.219425
2025-06-04T19:32:46.575819,10.247183,0.196325,-2.219425
2025-06-04T19:32:46.575819,10.204087,0.229843,-2.207454
2025-06-04T19:32:46.575819,10.218452,0.244209,-2.209848
2025-06-04T19:32:46.575819,10.247183,0.198719,-2.20506
2025-06-04T19:32:46.575819,10.21127,0.196325,-2.236184
2025-06-04T19:32:46.575819,10.19451,0.227449,-2.200271
2025-06-04T19:32:46.575819,10.220847,0.234632,-2.243367
2025-06-04T19:32:46.575819,10.201694,0.225055,-2.207454
2025-06-04T19:32:46.575819,10.21127,0.220267,-2.245761
2025-06-04T19:32:46.583503,10.213664,0.217872,-2.200271
2025-06-04T19:32:46.583854,10.213664,0.201113,-2.190695
2025-06-04T19:32:46.583854,10.216059,0.213084,-2.212242
2025-06-04T19:32:46.583854,10.237606,0.248997,-2.207454
2025-06-04T19:32:46.583854,10.21127,0.222661,-2.229002
2025-06-04T19:32:46.583854,10.19451,0.217872,-2.183512
2025-06-04T19:32:46.583854,10.19451,0.237026,-2.224213
2025-06-04T19:32:46.583854,10.21127,0.220267,-2.248155
2025-06-04T19:32:46.583854,10.204087,0.237026,-2.219425
2025-06-04T19:32:46.583854,10.196905,0.229843,-2.23379
2025-06-04T19:32:46.583854,10.230424,0.220267,-2.23379
2025-06-04T19:32:46.583854,10.208876,0.232238,-2.229002
2025-06-04T19:32:46.583854,10.216059,0.215478,-2.231396
2025-06-04T19:32:46.583854,10.223241,0.220267,-2.185906
2025-06-04T19:32:46.583854,10.213664,0.225055,-2.20506
2025-06-04T19:32:46.583854,10.201694,0.213084,-2.217031
2025-06-04T19:32:46.583854,10.208876,0.21069,-2.221819
2025-06-04T19:32:46.583854,10.192117,0.215478,-2.202666
2025-06-04T19:32:46.583854,10.208876,0.227449,-2.185906
2025-06-04T19:32:46.583854,10.206482,0.203507,-2.264915
2025-06-04T19:32:46.592104,10.213664,0.215478,-2.207454
2025-06-04T19:32:46.592104,10.223241,0.229843,-2.209848
2025-06-04T19:32:46.592104,10.225636,0.225055,-2.207454
2025-06-04T19:32:46.592104,10.230424,0.227449,-2.207454
2025-06-04T19:32:46.592104,10.230424,0.21069,-2.236184
2025-06-04T19:32:46.592104,10.177752,0.229843,-2.209848
