timestamp_pc,accel_x,accel_y,accel_z,event_marker_from_esp32
2025-06-04T19:29:57.282266,9.533711,0.215478,-2.078167,0
2025-06-04T19:29:57.282266,10.180145,0.232238,-2.209848,0
2025-06-04T19:29:57.283813,10.206482,0.237026,-2.221819,0
2025-06-04T19:29:57.283813,10.218452,0.205901,-2.236184,0
2025-06-04T19:29:57.283813,10.206482,0.220267,-2.219425,0
2025-06-04T19:29:57.285601,10.223241,0.222661,-2.229002,0
2025-06-04T19:29:57.285601,10.230424,0.229843,-2.214637,0
2025-06-04T19:29:57.285601,10.213664,0.23942,-2.217031,0
2025-06-04T19:29:57.285601,10.232818,0.213084,-2.200271,0
2025-06-04T19:29:57.287277,10.206482,0.234632,-2.224213,0
2025-06-04T19:29:57.287277,10.21127,0.222661,-2.229002,0
2025-06-04T19:29:57.287277,10.228029,0.215478,-2.202666,0
2025-06-04T19:29:57.287277,10.218452,0.225055,-2.202666,0
2025-06-04T19:29:57.288915,10.206482,0.222661,-2.178724,0
2025-06-04T19:29:57.288915,10.220847,0.227449,-2.207454,0
2025-06-04T19:29:57.288915,10.204087,0.217872,-2.217031,0
2025-06-04T19:29:57.290587,10.228029,0.205901,-2.212242,0
2025-06-04T19:29:57.290587,10.218452,0.225055,-2.212242,0
2025-06-04T19:29:57.290587,10.201694,0.232238,-2.197877,0
2025-06-04T19:29:57.290587,10.230424,0.222661,-2.238579,0
2025-06-04T19:29:57.293141,10.208876,0.237026,-2.212242,0
2025-06-04T19:29:57.293681,10.199299,0.23942,-2.231396,0
2025-06-04T19:29:57.293681,10.187328,0.23942,-2.224213,0
2025-06-04T19:29:57.293681,10.204087,0.237026,-2.214637,0
2025-06-04T19:29:57.295321,10.213664,0.220267,-2.229002,0
2025-06-04T19:29:57.295321,10.235212,0.222661,-2.20506,0
2025-06-04T19:29:57.295321,10.199299,0.232238,-2.217031,0
2025-06-04T19:29:57.295321,10.237606,0.203507,-2.214637,0
2025-06-04T19:29:57.297033,10.216059,0.213084,-2.1883,0
2025-06-04T19:29:57.297033,10.201694,0.217872,-2.231396,0
2025-06-04T19:29:57.297033,10.208876,0.217872,-2.195483,0
2025-06-04T19:29:57.298741,10.199299,0.208296,-2.214637,0
2025-06-04T19:29:57.298741,10.21127,0.227449,-2.240973,0
2025-06-04T19:29:57.298741,10.225636,0.217872,-2.217031,0
2025-06-04T19:29:57.300347,10.230424,0.225055,-2.183512,0
2025-06-04T19:29:57.300347,10.216059,0.21069,-2.197877,0
2025-06-04T19:29:57.302109,10.225636,0.220267,-2.209848,0
2025-06-04T19:29:57.302109,10.218452,0.208296,-2.217031,0
2025-06-04T19:29:57.302109,10.19451,0.234632,-2.226608,0
2025-06-04T19:29:57.302109,10.208876,0.229843,-2.248155,0
2025-06-04T19:29:57.302109,10.204087,0.241814,-2.214637,0
2025-06-04T19:29:57.302109,10.196905,0.229843,-2.23379,0
2025-06-04T19:29:57.302109,10.216059,0.225055,-2.207454,0
2025-06-04T19:29:57.302109,10.204087,0.215478,-2.183512,0
2025-06-04T19:29:57.302109,10.19451,0.222661,-2.217031,0
2025-06-04T19:29:57.302109,10.216059,0.232238,-2.226608,0
2025-06-04T19:29:57.302109,10.225636,0.232238,-2.207454,0
2025-06-04T19:29:57.302109,10.21127,0.205901,-2.1883,0
2025-06-04T19:29:57.302109,10.220847,0.213084,-2.217031,0
2025-06-04T19:29:57.302109,10.218452,0.222661,-2.212242,0
2025-06-04T19:29:57.302109,10.204087,0.217872,-2.202666,0
2025-06-04T19:29:57.308795,10.204087,0.227449,-2.226608,0
2025-06-04T19:29:57.308795,10.216059,0.222661,-2.214637,0
2025-06-04T19:29:57.308795,10.199299,0.217872,-2.20506,0
2025-06-04T19:29:57.308795,10.218452,0.217872,-2.214637,0
2025-06-04T19:29:57.308795,10.216059,0.215478,-2.207454,0
2025-06-04T19:29:57.308795,10.230424,0.215478,-2.231396,0
2025-06-04T19:29:57.308795,10.218452,0.220267,-2.197877,0
2025-06-04T19:29:57.308795,10.235212,0.244209,-2.207454,0
2025-06-04T19:29:57.308795,10.213664,0.217872,-2.224213,0
2025-06-04T19:29:57.308795,10.206482,0.229843,-2.219425,0
2025-06-04T19:29:57.308795,10.220847,0.23942,-2.207454,0
2025-06-04T19:29:57.308795,10.208876,0.205901,-2.224213,0
2025-06-04T19:29:57.308795,10.218452,0.225055,-2.231396,0
2025-06-04T19:29:57.308795,10.208876,0.208296,-2.200271,0
2025-06-04T19:29:57.308795,10.213664,0.217872,-2.219425,0
2025-06-04T19:29:57.308795,10.21127,0.220267,-2.176329,0
2025-06-04T19:29:57.308795,10.199299,0.227449,-2.219425,0
2025-06-04T19:29:57.317072,10.19451,0.217872,-2.214637,0
2025-06-04T19:29:57.317072,10.204087,0.222661,-2.20506,0
2025-06-04T19:29:57.317072,10.201694,0.225055,-2.236184,0
2025-06-04T19:29:57.317072,10.218452,0.222661,-2.202666,0
2025-06-04T19:29:57.317072,10.218452,0.227449,-2.20506,0
2025-06-04T19:29:57.317072,10.213664,0.232238,-2.178724,0
2025-06-04T19:29:57.317072,10.223241,0.227449,-2.231396,0
2025-06-04T19:29:57.317072,10.21127,0.222661,-2.231396,0
2025-06-04T19:29:57.317072,10.225636,0.232238,-2.217031,0
2025-06-04T19:29:57.317072,10.223241,0.232238,-2.1883,0
2025-06-04T19:29:57.317072,10.218452,0.225055,-2.214637,0
2025-06-04T19:29:57.317072,10.216059,0.21069,-2.20506,0
2025-06-04T19:29:57.317072,10.199299,0.232238,-2.195483,0
2025-06-04T19:29:57.317072,10.213664,0.227449,-2.217031,0
2025-06-04T19:29:57.325217,10.230424,0.225055,-2.185906,0
2025-06-04T19:29:57.325582,10.220847,0.21069,-2.209848,0
2025-06-04T19:29:57.325582,10.216059,0.222661,-2.217031,0
2025-06-04T19:29:57.325582,10.216059,0.217872,-2.20506,0
2025-06-04T19:29:57.325582,10.218452,0.232238,-2.209848,0
2025-06-04T19:29:57.325582,10.232818,0.237026,-2.226608,0
2025-06-04T19:29:57.325582,10.220847,0.222661,-2.209848,0
2025-06-04T19:29:57.325582,10.213664,0.237026,-2.200271,0
2025-06-04T19:29:57.325582,10.225636,0.222661,-2.219425,0
2025-06-04T19:29:57.325582,10.225636,0.241814,-2.20506,0
2025-06-04T19:29:57.325582,10.220847,0.241814,-2.207454,0
2025-06-04T19:29:57.325582,10.225636,0.222661,-2.193089,0
2025-06-04T19:29:57.325582,10.196905,0.21069,-2.181118,0
2025-06-04T19:29:57.325582,10.213664,0.232238,-2.226608,0
2025-06-04T19:29:57.325582,10.223241,0.23942,-2.212242,0
2025-06-04T19:29:57.325582,10.220847,0.234632,-2.202666,0
2025-06-04T19:29:57.333292,10.220847,0.234632,-2.202666,0
2025-06-04T19:29:57.333292,10.225636,0.217872,-2.209848,0
2025-06-04T19:29:57.333292,10.199299,0.232238,-2.214637,0
2025-06-04T19:29:57.333292,10.204087,0.225055,-2.217031,0
2025-06-04T19:29:57.333292,10.192117,0.227449,-2.202666,0
2025-06-04T19:29:57.333292,10.213664,0.229843,-2.190695,0
2025-06-04T19:29:57.333292,10.19451,0.225055,-2.193089,0
2025-06-04T19:29:57.333292,10.204087,0.201113,-2.183512,0
2025-06-04T19:29:57.333292,10.218452,0.215478,-2.224213,0
2025-06-04T19:29:57.333292,10.21127,0.220267,-2.214637,0
2025-06-04T19:29:57.333292,10.213664,0.232238,-2.25055,0
2025-06-04T19:29:57.333292,10.223241,0.227449,-2.202666,0
2025-06-04T19:29:57.333292,10.206482,0.220267,-2.200271,0
2025-06-04T19:29:57.333292,10.206482,0.234632,-2.202666,0
2025-06-04T19:29:57.333292,10.19451,0.225055,-2.193089,0
2025-06-04T19:29:57.333292,10.201694,0.248997,-2.202666,0
2025-06-04T19:29:57.333292,10.208876,0.215478,-2.195483,0
2025-06-04T19:29:57.333292,10.213664,0.232238,-2.219425,0
2025-06-04T19:29:57.333292,10.218452,0.213084,-2.190695,0
2025-06-04T19:29:57.333292,10.206482,0.227449,-2.226608,0
2025-06-04T19:29:57.333292,10.220847,0.213084,-2.202666,0
2025-06-04T19:29:57.333292,10.204087,0.220267,-2.231396,0
2025-06-04T19:29:57.342208,10.213664,0.222661,-2.207454,0
2025-06-04T19:29:57.342860,10.208876,0.220267,-2.181118,0
2025-06-04T19:29:57.342860,10.228029,0.232238,-2.231396,0
2025-06-04T19:29:57.342860,10.208876,0.227449,-2.23379,0
2025-06-04T19:29:57.342860,10.213664,0.215478,-2.214637,0
2025-06-04T19:29:57.342860,10.21127,0.222661,-2.214637,0
2025-06-04T19:29:57.342860,10.192117,0.213084,-2.200271,0
2025-06-04T19:29:57.342860,10.220847,0.213084,-2.1883,0
2025-06-04T19:29:57.342860,10.220847,0.232238,-2.226608,0
2025-06-04T19:29:57.342860,10.216059,0.225055,-2.224213,0
2025-06-04T19:29:57.342860,10.218452,0.222661,-2.217031,0
2025-06-04T19:29:57.346528,10.199299,0.220267,-2.221819,0
2025-06-04T19:29:57.346528,10.206482,0.220267,-2.173935,0
2025-06-04T19:29:57.346528,10.206482,0.21069,-2.212242,0
2025-06-04T19:29:57.346528,10.218452,0.215478,-2.214637,0
2025-06-04T19:29:57.346528,10.213664,0.227449,-2.214637,0
2025-06-04T19:29:57.346528,10.223241,0.229843,-2.214637,0
2025-06-04T19:29:57.346528,10.213664,0.203507,-2.238579,0
2025-06-04T19:29:57.346528,10.201694,0.225055,-2.200271,0
2025-06-04T19:29:57.350456,10.201694,0.225055,-2.229002,0
2025-06-04T19:29:57.350883,10.206482,0.213084,-2.197877,0
2025-06-04T19:29:57.350883,10.208876,0.229843,-2.214637,0
2025-06-04T19:29:57.351618,10.218452,0.227449,-2.20506,0
2025-06-04T19:29:57.351618,10.228029,0.217872,-2.219425,0
2025-06-04T19:29:57.351618,10.206482,0.222661,-2.193089,0
2025-06-04T19:29:57.351618,10.213664,0.220267,-2.1883,0
2025-06-04T19:29:57.351618,10.213664,0.217872,-2.214637,0
2025-06-04T19:29:57.351618,10.21127,0.208296,-2.214637,0
2025-06-04T19:29:57.351618,10.206482,0.208296,-2.209848,0
2025-06-04T19:29:57.351618,10.218452,0.217872,-2.209848,0
2025-06-04T19:29:57.351618,10.204087,0.217872,-2.224213,0
2025-06-04T19:29:57.351618,10.206482,0.220267,-2.212242,0
2025-06-04T19:29:57.351618,10.206482,0.229843,-2.185906,0
2025-06-04T19:29:57.351618,10.208876,0.237026,-2.231396,0
2025-06-04T19:29:57.351618,10.21127,0.229843,-2.1883,0
2025-06-04T19:29:57.351618,10.208876,0.232238,-2.202666,0
2025-06-04T19:29:57.351618,10.21127,0.222661,-2.1883,0
2025-06-04T19:29:57.351618,10.218452,0.229843,-2.207454,0
2025-06-04T19:29:57.351618,10.208876,0.227449,-2.226608,0
2025-06-04T19:29:57.351618,10.240001,0.222661,-2.209848,0
2025-06-04T19:29:57.358155,10.216059,0.225055,-2.212242,0
2025-06-04T19:29:57.358973,10.21127,0.217872,-2.229002,0
2025-06-04T19:29:57.358973,10.201694,0.208296,-2.212242,0
2025-06-04T19:29:57.358973,10.201694,0.215478,-2.200271,0
2025-06-04T19:29:57.358973,10.21127,0.21069,-2.202666,0
2025-06-04T19:29:57.358973,10.192117,0.21069,-2.193089,0
2025-06-04T19:29:57.358973,10.218452,0.203507,-2.207454,0
2025-06-04T19:29:57.358973,10.228029,0.19393,-2.212242,0
2025-06-04T19:29:57.358973,10.218452,0.215478,-2.221819,0
2025-06-04T19:29:57.358973,10.201694,0.205901,-2.217031,0
2025-06-04T19:29:57.358973,10.218452,0.225055,-2.202666,0
2025-06-04T19:29:57.358973,10.216059,0.229843,-2.217031,0
2025-06-04T19:29:57.358973,10.220847,0.217872,-2.207454,0
2025-06-04T19:29:57.358973,10.204087,0.220267,-2.226608,0
2025-06-04T19:29:57.358973,10.204087,0.213084,-2.190695,0
2025-06-04T19:29:57.358973,10.192117,0.227449,-2.214637,0
2025-06-04T19:29:57.358973,10.225636,0.232238,-2.219425,0
2025-06-04T19:29:57.366648,10.208876,0.217872,-2.214637,0
2025-06-04T19:29:57.367318,10.204087,0.227449,-2.207454,0
2025-06-04T19:29:57.367318,10.220847,0.215478,-2.202666,0
2025-06-04T19:29:57.367318,10.228029,0.225055,-2.236184,0
2025-06-04T19:29:57.367318,10.204087,0.237026,-2.219425,0
2025-06-04T19:29:57.367318,10.216059,0.215478,-2.226608,0
2025-06-04T19:29:57.367318,10.216059,0.225055,-2.221819,0
2025-06-04T19:29:57.367318,10.201694,0.227449,-2.217031,0
2025-06-04T19:29:57.367318,10.208876,0.217872,-2.212242,0
2025-06-04T19:29:57.367318,10.218452,0.227449,-2.20506,0
2025-06-04T19:29:57.367318,10.192117,0.213084,-2.197877,0
2025-06-04T19:29:57.367318,10.206482,0.225055,-2.209848,0
2025-06-04T19:29:57.367318,10.213664,0.23942,-2.224213,0
2025-06-04T19:29:57.367318,10.220847,0.237026,-2.224213,0
2025-06-04T19:29:57.367318,10.216059,0.237026,-2.209848,0
2025-06-04T19:29:57.367318,10.232818,0.217872,-2.231396,0
2025-06-04T19:29:57.367318,10.228029,0.225055,-2.243367,0
2025-06-04T19:29:57.374665,10.216059,0.220267,-2.20506,0
2025-06-04T19:29:57.375391,10.223241,0.215478,-2.197877,0
2025-06-04T19:29:57.375391,10.220847,0.232238,-2.212242,0
2025-06-04T19:29:57.375391,10.218452,0.229843,-2.226608,0
2025-06-04T19:29:57.375391,10.208876,0.203507,-2.207454,0
2025-06-04T19:29:57.375391,10.189722,0.220267,-2.229002,0
2025-06-04T19:29:57.375391,10.208876,0.229843,-2.209848,0
2025-06-04T19:29:57.375391,10.199299,0.222661,-2.195483,0
2025-06-04T19:29:57.375391,10.232818,0.227449,-2.207454,0
2025-06-04T19:29:57.375391,10.228029,0.220267,-2.1883,0
2025-06-04T19:29:57.375391,10.218452,0.225055,-2.1883,0
2025-06-04T19:29:57.375391,10.225636,0.217872,-2.23379,0
2025-06-04T19:29:57.375391,10.225636,0.201113,-2.217031,0
2025-06-04T19:29:57.375391,10.220847,0.227449,-2.214637,0
2025-06-04T19:29:57.375391,10.218452,0.220267,-2.190695,0
2025-06-04T19:29:57.375391,10.216059,0.215478,-2.224213,0
2025-06-04T19:29:57.375391,10.19451,0.225055,-2.221819,0
2025-06-04T19:29:57.375391,10.204087,0.213084,-2.1883,0
2025-06-04T19:29:57.375391,10.206482,0.232238,-2.195483,0
2025-06-04T19:29:57.383054,10.21127,0.220267,-2.200271,0
2025-06-04T19:29:57.383054,10.213664,0.220267,-2.217031,0
2025-06-04T19:29:57.384008,10.223241,0.203507,-2.212242,0
2025-06-04T19:29:57.384008,10.196905,0.232238,-2.20506,0
2025-06-04T19:29:57.384008,10.208876,0.213084,-2.207454,0
2025-06-04T19:29:57.384008,10.204087,0.205901,-2.207454,0
2025-06-04T19:29:57.384008,10.19451,0.227449,-2.219425,0
2025-06-04T19:29:57.384008,10.19451,0.217872,-2.200271,0
2025-06-04T19:29:57.384008,10.223241,0.222661,-2.214637,0
2025-06-04T19:29:57.384008,10.199299,0.225055,-2.226608,0
2025-06-04T19:29:57.384008,10.199299,0.220267,-2.197877,0
2025-06-04T19:29:57.384008,10.19451,0.191536,-2.202666,0
2025-06-04T19:29:57.384008,10.199299,0.215478,-2.219425,0
2025-06-04T19:29:57.384008,10.223241,0.227449,-2.183512,0
2025-06-04T19:29:57.384008,10.228029,0.220267,-2.214637,0
2025-06-04T19:29:57.384008,10.223241,0.215478,-2.209848,0
2025-06-04T19:29:57.384008,10.230424,0.225055,-2.219425,0
2025-06-04T19:29:57.384008,10.223241,0.237026,-2.190695,0
2025-06-04T19:29:57.384008,10.204087,0.225055,-2.214637,0
2025-06-04T19:29:57.384008,10.220847,0.220267,-2.23379,0
2025-06-04T19:29:57.384008,10.206482,0.208296,-2.23379,0
2025-06-04T19:29:57.391156,10.208876,0.217872,-2.212242,0
2025-06-04T19:29:57.391156,10.206482,0.213084,-2.221819,0
2025-06-04T19:29:57.392362,10.220847,0.227449,-2.207454,0
2025-06-04T19:29:57.392362,10.201694,0.229843,-2.161964,0
2025-06-04T19:29:57.392362,10.189722,0.232238,-2.169147,0
2025-06-04T19:29:57.393554,10.21127,0.225055,-2.202666,0
2025-06-04T19:29:57.393554,10.208876,0.220267,-2.195483,0
2025-06-04T19:29:57.393554,10.19451,0.217872,-2.212242,0
2025-06-04T19:29:57.393554,10.230424,0.220267,-2.183512,0
2025-06-04T19:29:57.393554,10.220847,0.225055,-2.193089,0
2025-06-04T19:29:57.393554,10.213664,0.232238,-2.229002,0
2025-06-04T19:29:57.393554,10.206482,0.215478,-2.229002,0
2025-06-04T19:29:57.393554,10.220847,0.232238,-2.238579,0
2025-06-04T19:29:57.393554,10.228029,0.220267,-2.236184,0
2025-06-04T19:29:57.393554,10.220847,0.222661,-2.212242,0
2025-06-04T19:29:57.393554,10.206482,0.208296,-2.221819,0
2025-06-04T19:29:57.393554,10.206482,0.23942,-2.209848,0
2025-06-04T19:29:57.393554,10.21127,0.227449,-2.209848,0
2025-06-04T19:29:57.393554,10.216059,0.234632,-2.221819,0
2025-06-04T19:29:57.393554,10.206482,0.217872,-2.226608,0
2025-06-04T19:29:57.393554,10.19451,0.241814,-2.207454,0
2025-06-04T19:29:57.399602,10.237606,0.213084,-2.23379,0
2025-06-04T19:29:57.399602,10.220847,0.21069,-2.257732,0
2025-06-04T19:29:57.400684,10.228029,0.220267,-2.200271,0
2025-06-04T19:29:57.400684,10.21127,0.232238,-2.219425,0
2025-06-04T19:29:57.400684,10.189722,0.227449,-2.238579,0
2025-06-04T19:29:57.400684,10.196905,0.215478,-2.221819,0
2025-06-04T19:29:57.400684,10.201694,0.21069,-2.23379,0
2025-06-04T19:29:57.400684,10.208876,0.222661,-2.197877,1
2025-06-04T19:29:57.400684,10.208876,0.225055,-2.221819,0
2025-06-04T19:29:57.400684,10.206482,0.220267,-2.20506,0
2025-06-04T19:29:57.400684,10.19451,0.215478,-2.200271,0
2025-06-04T19:29:57.400684,10.199299,0.227449,-2.1883,0
2025-06-04T19:30:01.459290,10.237606,0.220267,-2.226608,0
2025-06-04T19:30:01.459290,10.240001,0.227449,-2.23379,0
2025-06-04T19:30:01.459290,10.216059,0.232238,-2.197877,0
2025-06-04T19:30:01.459290,10.160992,0.215478,-2.226608,0
2025-06-04T19:30:01.459290,10.168175,0.222661,-2.20506,0
2025-06-04T19:30:01.459290,10.158598,0.191536,-2.193089,0
2025-06-04T19:30:01.459290,10.163386,0.191536,-2.193089,0
2025-06-04T19:30:01.459290,10.184934,0.215478,-2.190695,0
2025-06-04T19:30:01.459290,10.187328,0.205901,-2.176329,0
2025-06-04T19:30:01.459290,10.196905,0.189142,-2.193089,0
2025-06-04T19:30:01.459290,10.192117,0.203507,-2.195483,0
2025-06-04T19:30:01.459290,10.218452,0.21069,-2.217031,0
2025-06-04T19:30:01.466420,10.230424,0.208296,-2.245761,0
2025-06-04T19:30:01.467291,10.216059,0.222661,-2.214637,0
2025-06-04T19:30:01.467291,10.230424,0.227449,-2.212242,0
2025-06-04T19:30:01.468607,10.218452,0.234632,-2.209848,0
2025-06-04T19:30:01.468607,10.362105,0.227449,-2.207454,0
2025-06-04T19:30:01.468607,10.33098,0.229843,-2.226608,0
2025-06-04T19:30:01.468607,10.369287,0.258574,-2.296039,0
2025-06-04T19:30:01.471064,10.30225,0.260968,-2.245761,0
2025-06-04T19:30:01.471426,10.271125,0.260968,-2.240973,0
2025-06-04T19:30:01.471934,10.295067,0.258574,-2.262521,0
2025-06-04T19:30:01.471934,10.240001,0.265756,-2.238579,0
2025-06-04T19:30:01.471934,10.228029,0.25618,-2.221819,0
2025-06-04T19:30:01.471934,10.196905,0.25618,-2.257732,0
2025-06-04T19:30:01.474826,10.18254,0.229843,-2.1883,0
2025-06-04T19:30:01.476004,10.19451,0.225055,-2.197877,0
2025-06-04T19:30:01.476004,10.18254,0.205901,-2.212242,0
2025-06-04T19:30:01.476004,10.230424,0.234632,-2.078167,0
2025-06-04T19:30:01.476004,10.568007,0.1652,-2.343924,0
2025-06-04T19:30:01.476004,10.366894,0.177171,-2.169147,0
2025-06-04T19:30:01.476004,10.27352,0.217872,-2.142811,0
2025-06-04T19:30:01.476004,10.400413,0.229843,-2.286463,0
2025-06-04T19:30:01.476004,10.412383,0.263362,-2.298434,0
2025-06-04T19:30:01.476004,10.338163,0.287304,-2.262521,0
2025-06-04T19:30:01.476004,10.326192,0.301669,-2.293645,0
2025-06-04T19:30:01.476004,10.263943,0.287304,-2.262521,0
2025-06-04T19:30:01.482854,10.242394,0.289698,-2.267309,0
2025-06-04T19:30:01.483741,10.180145,0.241814,-2.221819,0
2025-06-04T19:30:01.483741,10.429143,0.191536,-2.135628,0
2025-06-04T19:30:01.483741,10.424355,0.23942,-2.207454,0
2025-06-04T19:30:01.483741,10.718841,0.270545,-2.494758,0
2025-06-04T19:30:01.483741,10.388441,0.282516,-2.238579,0
2025-06-04T19:30:01.483741,10.280702,0.258574,-2.207454,0
2025-06-04T19:30:01.483741,10.407595,0.323217,-2.365471,0
2025-06-04T19:30:01.483741,10.323798,0.308852,-2.319981,0
2025-06-04T19:30:01.483741,10.223241,0.294487,-2.281674,0
2025-06-04T19:30:01.483741,10.240001,0.280122,-2.291251,0
2025-06-04T19:30:01.483741,10.218452,0.246603,-2.243367,0
2025-06-04T19:30:01.483741,10.151415,0.213084,-2.20506,0
2025-06-04T19:30:01.483741,10.168175,0.222661,-2.207454,0
2025-06-04T19:30:01.483741,10.730812,0.316035,-2.377442,0
2025-06-04T19:30:01.483741,10.34774,0.28491,-2.322376,0
2025-06-04T19:30:01.491099,10.13705,0.368707,-2.1883,0
2025-06-04T19:30:01.491099,10.311827,0.311246,-2.363077,0
2025-06-04T19:30:01.491099,10.311827,0.306458,-2.336741,0
2025-06-04T19:30:01.491099,10.16578,0.335188,-2.226608,0
2025-06-04T19:30:01.491099,10.146626,0.296881,-2.243367,0
2025-06-04T19:30:01.491099,10.192117,0.246603,-2.243367,0
2025-06-04T19:30:01.491099,10.113108,0.234632,-2.161964,0
2025-06-04T19:30:01.491099,10.127473,0.189142,-2.178724,0
2025-06-04T19:30:01.491099,10.18254,0.196325,-2.190695,0
2025-06-04T19:30:01.491099,10.19451,0.205901,-2.185906,0
2025-06-04T19:30:01.491099,10.55843,0.205901,-2.23379,0
2025-06-04T19:30:01.491099,10.323798,0.260968,-2.164358,0
2025-06-04T19:30:01.491099,10.618284,0.323217,-2.413355,0
2025-06-04T19:30:01.491099,10.417171,0.275333,-2.305616,0
2025-06-04T19:30:01.491099,10.304645,0.294487,-2.238579,0
2025-06-04T19:30:01.491099,10.342952,0.320823,-2.303222,0
2025-06-04T19:30:01.491099,10.311827,0.320823,-2.322376,0
2025-06-04T19:30:01.491099,10.232818,0.282516,-2.264915,0
2025-06-04T19:30:01.491099,10.19451,0.251391,-2.248155,0
2025-06-04T19:30:01.491099,10.19451,0.246603,-2.255338,0
2025-06-04T19:30:01.491099,10.149021,0.217872,-2.231396,0
2025-06-04T19:30:01.499600,10.127473,0.225055,-2.181118,0
2025-06-04T19:30:01.499600,10.244789,0.189142,-2.181118,0
2025-06-04T19:30:01.499600,10.338163,0.146046,-2.238579,0
2025-06-04T19:30:01.499600,10.247183,0.155623,-2.157176,0
2025-06-04T19:30:01.499600,10.283096,0.201113,-2.178724,0
2025-06-04T19:30:01.499600,10.326192,0.19393,-2.229002,0
2025-06-04T19:30:01.499600,10.314221,0.225055,-2.226608,0
2025-06-04T19:30:01.499600,10.271125,0.258574,-2.293645,0
2025-06-04T19:30:01.499600,10.290278,0.272939,-2.274492,0
2025-06-04T19:30:01.499600,10.25676,0.282516,-2.276886,0
2025-06-04T19:30:01.499600,10.242394,0.25618,-2.25055,0
2025-06-04T19:30:01.499600,10.218452,0.234632,-2.252944,0
2025-06-04T19:30:01.499600,10.544065,0.23942,-2.327164,0
2025-06-04T19:30:01.499600,10.271125,0.263362,-2.157176,0
2025-06-04T19:30:01.499600,10.426748,0.299275,-2.367866,0
2025-06-04T19:30:01.508467,10.357317,0.258574,-2.296039,0
2025-06-04T19:30:01.508467,10.242394,0.251391,-2.214637,0
2025-06-04T19:30:01.508467,10.275913,0.280122,-2.27928,0
2025-06-04T19:30:01.508467,10.292673,0.275333,-2.291251,0
2025-06-04T19:30:01.508467,10.228029,0.270545,-2.252944,0
2025-06-04T19:30:01.508467,10.21127,0.265756,-2.23379,0
2025-06-04T19:30:01.508467,10.175357,0.248997,-2.212242,0
2025-06-04T19:30:01.508467,10.168175,0.225055,-2.185906,0
2025-06-04T19:30:01.508467,10.081984,0.21069,-2.202666,0
2025-06-04T19:30:01.508467,9.988609,0.174777,-2.135628,0
2025-06-04T19:30:01.508467,10.007763,0.136469,-2.097321,0
2025-06-04T19:30:01.508467,10.15381,0.141258,-2.202666,0
2025-06-04T19:30:01.508467,10.180145,0.184354,-2.190695,0
2025-06-04T19:30:01.508467,10.180145,0.172383,-2.147599,0
2025-06-04T19:30:01.508467,10.201694,0.186748,-2.171541,0
2025-06-04T19:30:01.508467,10.213664,0.196325,-2.217031,0
2025-06-04T19:30:01.516146,10.235212,0.205901,-2.217031,0
2025-06-04T19:30:01.516146,10.25676,0.232238,-2.209848,0
2025-06-04T19:30:01.517666,10.261548,0.225055,-2.219425,0
2025-06-04T19:30:01.517666,10.072407,0.227449,-2.212242,0
2025-06-04T19:30:01.517666,9.950302,0.270545,-2.1883,0
2025-06-04T19:30:01.517666,10.024523,0.232238,-2.185906,0
2025-06-04T19:30:01.517666,10.117896,0.186748,-2.202666,0
2025-06-04T19:30:01.517666,10.041282,0.220267,-2.154782,0
2025-06-04T19:30:01.517666,10.096349,0.167594,-2.157176,0
2025-06-04T19:30:01.517666,10.149021,0.172383,-2.169147,0
2025-06-04T19:30:01.517666,10.177752,0.179565,-2.164358,0
2025-06-04T19:30:01.517666,10.19451,0.198719,-2.176329,0
2025-06-04T19:30:01.517666,10.242394,0.196325,-2.197877,0
2025-06-04T19:30:01.517666,10.259154,0.217872,-2.23379,0
2025-06-04T19:30:01.517666,10.469844,0.217872,-2.243367,0
2025-06-04T19:30:01.517666,10.390836,0.265756,-2.260126,0
2025-06-04T19:30:01.517666,10.493786,0.306458,-2.365471,0
2025-06-04T19:30:01.517666,10.323798,0.292093,-2.284068,0
2025-06-04T19:30:01.517666,10.249578,0.299275,-2.245761,0
2025-06-04T19:30:01.524162,10.263943,0.294487,-2.303222,0
2025-06-04T19:30:01.524162,10.225636,0.289698,-2.310405,0
2025-06-04T19:30:01.524162,10.172963,0.260968,-2.245761,0
2025-06-04T19:30:01.524162,10.156203,0.23942,-2.200271,0
2025-06-04T19:30:01.524162,10.160992,0.217872,-2.173935,0
2025-06-04T19:30:01.524162,10.01734,0.181959,-2.164358,0
2025-06-04T19:30:01.524162,9.900024,0.186748,-2.092532,0
2025-06-04T19:30:01.524162,10.031705,0.162806,-2.13084,0
2025-06-04T19:30:01.524162,10.125079,0.141258,-2.166753,0
2025-06-04T19:30:01.524162,10.105926,0.174777,-2.138022,0
2025-06-04T19:30:01.524162,10.160992,0.167594,-2.1883,0
2025-06-04T19:30:01.524162,10.213664,0.158017,-2.197877,0
2025-06-04T19:30:01.524162,10.235212,0.191536,-2.185906,0
2025-06-04T19:30:01.524162,10.230424,0.21069,-2.219425,0
2025-06-04T19:30:01.524162,10.247183,0.248997,-2.23379,0
2025-06-04T19:30:01.524162,10.235212,0.241814,-2.240973,0
2025-06-04T19:30:01.524162,10.371682,0.229843,-2.173935,0
2025-06-04T19:30:01.524162,10.472239,0.19393,-2.286463,0
2025-06-04T19:30:01.524162,10.314221,0.225055,-2.240973,0
2025-06-04T19:30:01.524162,10.316615,0.253785,-2.217031,0
2025-06-04T19:30:01.524162,10.297462,0.237026,-2.229002,0
2025-06-04T19:30:01.524162,10.283096,0.241814,-2.252944,0
2025-06-04T19:30:01.532223,10.225636,0.280122,-2.245761,0
2025-06-04T19:30:01.532223,10.235212,0.275333,-2.240973,0
2025-06-04T19:30:01.532223,10.235212,0.244209,-2.229002,0
2025-06-04T19:30:01.532223,10.19451,0.244209,-2.212242,0
2025-06-04T19:30:01.533995,10.216059,0.215478,-2.202666,0
2025-06-04T19:30:01.533995,10.383653,0.246603,-2.267309,0
2025-06-04T19:30:01.533995,10.175357,0.241814,-2.20506,0
2025-06-04T19:30:01.533995,10.196905,0.308852,-2.264915,0
2025-06-04T19:30:01.533995,10.204087,0.272939,-2.281674,0
2025-06-04T19:30:01.533995,10.18254,0.253785,-2.238579,0
2025-06-04T19:30:01.533995,10.151415,0.260968,-2.207454,0
2025-06-04T19:30:01.533995,10.18254,0.248997,-2.217031,0
2025-06-04T19:30:01.533995,10.16578,0.241814,-2.231396,0
2025-06-04T19:30:01.533995,10.187328,0.208296,-2.1883,0
2025-06-04T19:30:01.533995,10.196905,0.201113,-2.195483,0
2025-06-04T19:30:01.540386,10.228029,0.225055,-2.183512,0
2025-06-04T19:30:01.540386,10.172963,0.25618,-2.264915,0
2025-06-04T19:30:01.540386,10.18254,0.272939,-2.30801,0
2025-06-04T19:30:01.540386,10.120291,0.248997,-2.197877,0
2025-06-04T19:30:01.542322,10.144233,0.25618,-2.214637,0
2025-06-04T19:30:01.543044,10.15381,0.229843,-2.219425,0
2025-06-04T19:30:01.543044,10.13705,0.220267,-2.183512,0
2025-06-04T19:30:01.543044,10.15381,0.189142,-2.169147,0
2025-06-04T19:30:01.543044,10.192117,0.198719,-2.161964,0
2025-06-04T19:30:01.543044,10.180145,0.191536,-2.154782,0
2025-06-04T19:30:01.543044,10.321404,0.186748,-2.140416,0
2025-06-04T19:30:01.543044,10.419566,0.189142,-2.288857,0
2025-06-04T19:30:01.543044,10.393229,0.241814,-2.262521,0
2025-06-04T19:30:01.543044,10.323798,0.251391,-2.231396,0
2025-06-04T19:30:01.543044,10.309433,0.265756,-2.286463,0
2025-06-04T19:30:01.543044,10.292673,0.272939,-2.27928,2
2025-06-04T19:30:01.543044,10.247183,0.299275,-2.243367,0
2025-06-04T19:30:01.548731,10.240001,0.287304,-2.255338,0
2025-06-04T19:30:01.548731,10.208876,0.265756,-2.236184,0
2025-06-04T19:30:03.317453,10.175357,0.241814,-2.197877,0
2025-06-04T19:30:03.317453,10.146626,0.220267,-2.195483,0
2025-06-04T19:30:03.317453,10.158598,0.220267,-2.169147,0
2025-06-04T19:30:03.317453,10.189722,0.198719,-2.171541,0
2025-06-04T19:30:03.317453,10.199299,0.189142,-2.193089,0
2025-06-04T19:30:03.317453,10.189722,0.19393,-2.190695,0
2025-06-04T19:30:03.317453,10.196905,0.215478,-2.224213,0
2025-06-04T19:30:03.317453,10.199299,0.225055,-2.202666,0
2025-06-04T19:30:03.317453,10.225636,0.227449,-2.231396,0
2025-06-04T19:30:03.317453,10.249578,0.23942,-2.229002,0
2025-06-04T19:30:03.325126,10.228029,0.227449,-2.214637,0
2025-06-04T19:30:03.325745,10.21127,0.229843,-2.217031,0
2025-06-04T19:30:03.326161,10.206482,0.244209,-2.20506,0
2025-06-04T19:30:03.326161,10.220847,0.234632,-2.226608,0
2025-06-04T19:30:03.326161,10.218452,0.237026,-2.217031,0
2025-06-04T19:30:03.326161,10.18254,0.23942,-2.200271,0
2025-06-04T19:30:03.326161,10.199299,0.237026,-2.200271,0
2025-06-04T19:30:03.326161,10.18254,0.225055,-2.226608,0
2025-06-04T19:30:03.326161,10.196905,0.213084,-2.217031,0
2025-06-04T19:30:03.326161,10.216059,0.215478,-2.209848,0
2025-06-04T19:30:03.333138,10.206482,0.222661,-2.209848,0
2025-06-04T19:30:03.333138,10.218452,0.222661,-2.217031,0
2025-06-04T19:30:03.333138,10.206482,0.215478,-2.231396,0
2025-06-04T19:30:03.333138,10.196905,0.220267,-2.193089,0
2025-06-04T19:30:03.333138,10.201694,0.237026,-2.248155,0
2025-06-04T19:30:03.333138,10.220847,0.232238,-2.219425,0
2025-06-04T19:30:03.333138,10.218452,0.222661,-2.207454,0
2025-06-04T19:30:03.333138,10.216059,0.227449,-2.207454,0
2025-06-04T19:30:03.333138,10.201694,0.227449,-2.212242,0
2025-06-04T19:30:03.333138,10.177752,0.215478,-2.214637,0
2025-06-04T19:30:03.341256,10.223241,0.222661,-2.207454,0
2025-06-04T19:30:03.341256,10.228029,0.232238,-2.207454,0
2025-06-04T19:30:03.341256,10.228029,0.225055,-2.240973,0
2025-06-04T19:30:03.341256,10.220847,0.21069,-2.221819,0
2025-06-04T19:30:03.341256,10.218452,0.225055,-2.236184,0
2025-06-04T19:30:03.341256,10.213664,0.227449,-2.217031,0
2025-06-04T19:30:03.341256,10.199299,0.23942,-2.214637,0
2025-06-04T19:30:03.341256,10.204087,0.220267,-2.20506,0
2025-06-04T19:30:03.341256,10.206482,0.229843,-2.176329,0
2025-06-04T19:30:03.341256,10.201694,0.227449,-2.214637,0
2025-06-04T19:30:03.349440,10.220847,0.234632,-2.214637,0
2025-06-04T19:30:03.349440,10.201694,0.227449,-2.214637,0
2025-06-04T19:30:03.350424,10.225636,0.217872,-2.1883,0
2025-06-04T19:30:03.350424,10.21127,0.222661,-2.226608,0
2025-06-04T19:30:03.350424,10.228029,0.215478,-2.224213,0
2025-06-04T19:30:03.350424,10.213664,0.205901,-2.197877,0
2025-06-04T19:30:03.350424,10.216059,0.23942,-2.209848,0
2025-06-04T19:30:03.350424,10.213664,0.227449,-2.209848,0
2025-06-04T19:30:03.350424,10.220847,0.229843,-2.181118,0
2025-06-04T19:30:03.350424,10.220847,0.208296,-2.212242,0
2025-06-04T19:30:03.350424,10.228029,0.217872,-2.209848,0
2025-06-04T19:30:03.350424,10.208876,0.205901,-2.190695,0
2025-06-04T19:30:03.357785,10.230424,0.217872,-2.224213,0
2025-06-04T19:30:03.357785,10.204087,0.246603,-2.185906,0
2025-06-04T19:30:03.357785,10.220847,0.222661,-2.195483,0
2025-06-04T19:30:03.359973,10.218452,0.234632,-2.193089,0
2025-06-04T19:30:03.359973,10.201694,0.234632,-2.214637,0
2025-06-04T19:30:03.359973,10.204087,0.237026,-2.20506,0
2025-06-04T19:30:03.359973,10.201694,0.220267,-2.207454,0
2025-06-04T19:30:03.359973,10.19451,0.215478,-2.207454,0
2025-06-04T19:30:03.359973,10.201694,0.217872,-2.20506,0
2025-06-04T19:30:03.359973,10.218452,0.213084,-2.197877,0
2025-06-04T19:30:03.359973,10.230424,0.237026,-2.195483,0
2025-06-04T19:30:03.359973,10.216059,0.217872,-2.197877,0
2025-06-04T19:30:03.359973,10.208876,0.229843,-2.214637,0
2025-06-04T19:30:03.359973,10.192117,0.227449,-2.245761,0
2025-06-04T19:30:03.366044,10.213664,0.225055,-2.20506,0
2025-06-04T19:30:03.366044,10.189722,0.215478,-2.190695,0
2025-06-04T19:30:03.366044,10.19451,0.225055,-2.236184,0
2025-06-04T19:30:03.366044,10.19451,0.229843,-2.207454,0
2025-06-04T19:30:03.366044,10.189722,0.251391,-2.200271,0
2025-06-04T19:30:03.366044,10.189722,0.225055,-2.236184,0
2025-06-04T19:30:03.366044,10.201694,0.220267,-2.195483,0
2025-06-04T19:30:03.366044,10.206482,0.217872,-2.193089,0
2025-06-04T19:30:03.366044,10.220847,0.244209,-2.197877,0
2025-06-04T19:30:03.366044,10.21127,0.222661,-2.207454,0
2025-06-04T19:30:03.366044,10.223241,0.244209,-2.226608,0
2025-06-04T19:30:03.366044,10.206482,0.251391,-2.231396,1
2025-06-04T19:30:03.366044,10.228029,0.225055,-2.20506,0
2025-06-04T19:30:03.374076,10.199299,0.220267,-2.190695,0
2025-06-04T19:30:07.279130,10.213664,0.234632,-2.190695,0
2025-06-04T19:30:07.279130,10.223241,0.225055,-2.226608,0
2025-06-04T19:30:07.279130,10.206482,0.222661,-2.20506,0
2025-06-04T19:30:07.279130,10.206482,0.23942,-2.221819,0
2025-06-04T19:30:07.279130,10.247183,0.237026,-2.214637,0
2025-06-04T19:30:07.279130,10.184934,0.227449,-2.224213,0
2025-06-04T19:30:07.279130,10.321404,0.213084,-2.169147,0
2025-06-04T19:30:07.283225,10.386047,0.186748,-2.238579,0
2025-06-04T19:30:07.283225,10.316615,0.203507,-2.185906,0
2025-06-04T19:30:07.284455,10.307038,0.237026,-2.207454,0
2025-06-04T19:30:07.284455,10.321404,0.215478,-2.243367,0
2025-06-04T19:30:07.284455,10.292673,0.241814,-2.252944,0
2025-06-04T19:30:07.284455,10.278308,0.265756,-2.226608,0
2025-06-04T19:30:07.284455,10.27352,0.258574,-2.243367,0
2025-06-04T19:30:07.284455,10.266336,0.258574,-2.217031,0
2025-06-04T19:30:07.287933,10.216059,0.253785,-2.219425,0
2025-06-04T19:30:07.287933,10.342952,0.304064,-2.305616,0
2025-06-04T19:30:07.287933,10.237606,0.289698,-2.315193,0
2025-06-04T19:30:07.287933,10.122684,0.301669,-2.224213,0
2025-06-04T19:30:07.287933,10.108319,0.244209,-2.229002,0
2025-06-04T19:30:07.291483,10.177752,0.263362,-2.257732,0
2025-06-04T19:30:07.291483,10.151415,0.251391,-2.200271,0
2025-06-04T19:30:07.291483,10.122684,0.225055,-2.207454,0
2025-06-04T19:30:07.291483,10.170568,0.217872,-2.1883,0
2025-06-04T19:30:07.291483,10.158598,0.213084,-2.221819,0
2025-06-04T19:30:07.291483,10.170568,0.21069,-2.183512,0
2025-06-04T19:30:07.291483,10.199299,0.198719,-2.183512,0
2025-06-04T19:30:07.291483,10.472239,0.191536,-2.229002,0
2025-06-04T19:30:07.291483,10.352529,0.227449,-2.217031,0
2025-06-04T19:30:07.291483,10.510546,0.282516,-2.367866,0
2025-06-04T19:30:07.291483,10.374076,0.263362,-2.291251,0
2025-06-04T19:30:07.291483,10.283096,0.282516,-2.224213,0
2025-06-04T19:30:07.291483,10.311827,0.316035,-2.310405,0
2025-06-04T19:30:07.299600,10.27352,0.318429,-2.286463,0
2025-06-04T19:30:07.299600,10.225636,0.258574,-2.257732,0
2025-06-04T19:30:07.299600,10.187328,0.253785,-2.27928,0
2025-06-04T19:30:07.299600,10.158598,0.237026,-2.236184,0
2025-06-04T19:30:07.299600,10.156203,0.232238,-2.197877,0
2025-06-04T19:30:07.299600,10.060435,0.217872,-2.171541,0
2025-06-04T19:30:07.299600,10.093954,0.248997,-2.240973,0
2025-06-04T19:30:07.299600,10.096349,0.241814,-2.217031,0
2025-06-04T19:30:07.299600,10.041282,0.205901,-2.142811,0
2025-06-04T19:30:07.299600,10.117896,0.229843,-2.207454,0
2025-06-04T19:30:07.299600,10.189722,0.215478,-2.224213,0
2025-06-04T19:30:07.307676,10.163386,0.196325,-2.173935,0
2025-06-04T19:30:07.307676,10.18254,0.196325,-2.200271,0
2025-06-04T19:30:07.307676,10.18254,0.201113,-2.1883,0
2025-06-04T19:30:07.307676,10.204087,0.21069,-2.20506,0
2025-06-04T19:30:07.307676,10.216059,0.237026,-2.212242,0
2025-06-04T19:30:07.307676,10.223241,0.222661,-2.226608,0
2025-06-04T19:30:07.307676,10.357317,0.21069,-2.147599,0
2025-06-04T19:30:07.307676,10.479421,0.205901,-2.27928,0
2025-06-04T19:30:07.307676,10.457873,0.232238,-2.264915,0
2025-06-04T19:30:07.307676,10.304645,0.234632,-2.212242,0
2025-06-04T19:30:07.307676,10.335769,0.241814,-2.269703,0
2025-06-04T19:30:07.307676,10.31901,0.268151,-2.260126,0
2025-06-04T19:30:07.307676,10.251971,0.275333,-2.23379,0
2025-06-04T19:30:07.307676,10.228029,0.277727,-2.245761,0
2025-06-04T19:30:07.307676,10.208876,0.270545,-2.212242,0
2025-06-04T19:30:07.307676,10.213664,0.253785,-2.23379,0
2025-06-04T19:30:07.307676,7.335834,-0.328006,-0.715866,0
2025-06-04T19:30:07.316023,11.475409,1.522712,-4.271256,0
2025-06-04T19:30:07.316023,10.050858,0.272939,-2.109292,0
2025-06-04T19:30:07.316023,10.024523,-0.225055,-1.798046,0
2025-06-04T19:30:07.316023,10.668563,0.656011,-2.688689,0
2025-06-04T19:30:07.316023,10.316615,0.23942,-2.269703,0
2025-06-04T19:30:07.316023,10.393229,0.40462,-2.449268,0
2025-06-04T19:30:07.316023,10.208876,0.289698,-2.286463,0
2025-06-04T19:30:07.316023,10.18254,0.265756,-2.264915,0
2025-06-04T19:30:07.316023,10.172963,0.244209,-2.25055,0
2025-06-04T19:30:07.316023,10.15381,0.227449,-2.195483,0
2025-06-04T19:30:07.316023,10.15381,0.227449,-2.200271,0
2025-06-04T19:30:07.316023,10.012551,-0.064643,-1.692701,0
2025-06-04T19:30:07.316023,10.761936,0.543484,-2.592921,0
2025-06-04T19:30:07.316023,10.206482,0.055067,-1.889025,0
2025-06-04T19:30:07.316023,10.405201,0.25618,-2.341529,0
2025-06-04T19:30:07.316023,10.453085,0.292093,-2.363077,0
2025-06-04T19:30:07.316023,10.371682,0.277727,-2.260126,0
2025-06-04T19:30:07.316023,10.469844,0.387861,-2.463634,0
2025-06-04T19:30:07.316023,10.244789,0.258574,-2.272097,0
2025-06-04T19:30:07.316023,10.292673,0.347159,-2.346318,0
2025-06-04T19:30:07.316023,10.144233,0.229843,-2.231396,0
2025-06-04T19:30:07.324436,10.038888,0.237026,-2.209848,0
2025-06-04T19:30:07.325560,9.988609,0.225055,-2.185906,0
2025-06-04T19:30:07.325560,10.029311,0.174777,-2.145205,0
2025-06-04T19:30:07.325560,10.048465,0.172383,-2.123657,0
2025-06-04T19:30:07.325560,10.105926,0.181959,-2.152387,0
2025-06-04T19:30:07.325560,10.172963,0.189142,-2.1883,0
2025-06-04T19:30:07.325560,10.199299,0.19393,-2.176329,0
2025-06-04T19:30:07.325560,10.249578,0.19393,-2.185906,0
2025-06-04T19:30:07.325560,10.25676,0.227449,-2.229002,0
2025-06-04T19:30:07.325560,10.304645,0.244209,-2.269703,0
2025-06-04T19:30:07.325560,10.275913,0.258574,-2.276886,0
2025-06-04T19:30:07.325560,10.254366,0.246603,-2.291251,0
2025-06-04T19:30:07.325560,10.417171,0.280122,-2.291251,0
2025-06-04T19:30:07.325560,10.328587,0.248997,-2.288857,0
2025-06-04T19:30:07.332586,10.307038,0.263362,-2.262521,0
2025-06-04T19:30:07.332586,10.271125,0.275333,-2.286463,0
2025-06-04T19:30:07.332586,10.232818,0.248997,-2.252944,0
2025-06-04T19:30:07.332586,10.21127,0.251391,-2.269703,0
2025-06-04T19:30:07.332586,10.235212,0.253785,-2.274492,0
2025-06-04T19:30:07.332586,10.199299,0.270545,-2.260126,0
2025-06-04T19:30:07.332586,10.199299,0.251391,-2.272097,0
2025-06-04T19:30:07.332586,10.175357,0.244209,-2.243367,0
2025-06-04T19:30:07.332586,10.33098,0.248997,-2.243367,0
2025-06-04T19:30:07.332586,10.213664,0.265756,-2.281674,0
2025-06-04T19:30:07.332586,10.259154,0.311246,-2.331953,0
2025-06-04T19:30:07.332586,10.180145,0.277727,-2.276886,0
2025-06-04T19:30:07.332586,10.18254,0.268151,-2.281674,0
2025-06-04T19:30:07.332586,10.189722,0.25618,-2.248155,0
2025-06-04T19:30:07.332586,10.156203,0.258574,-2.217031,0
2025-06-04T19:30:07.340832,10.177752,0.222661,-2.224213,0
2025-06-04T19:30:07.340832,10.175357,0.220267,-2.212242,0
2025-06-04T19:30:07.340832,10.192117,0.213084,-2.193089,0
2025-06-04T19:30:07.340832,10.196905,0.201113,-2.195483,0
2025-06-04T19:30:07.340832,10.311827,0.289698,-2.252944,0
2025-06-04T19:30:07.340832,10.280702,0.306458,-2.394202,0
2025-06-04T19:30:07.340832,10.175357,0.323217,-2.298434,0
2025-06-04T19:30:07.340832,10.101137,0.272939,-2.245761,0
2025-06-04T19:30:07.340832,10.160992,0.287304,-2.286463,0
2025-06-04T19:30:07.340832,10.120291,0.25618,-2.240973,0
2025-06-04T19:30:07.340832,10.117896,0.229843,-2.185906,0
2025-06-04T19:30:07.340832,10.149021,0.227449,-2.178724,0
2025-06-04T19:30:07.340832,10.13705,0.19393,-2.169147,0
2025-06-04T19:30:07.340832,10.146626,0.196325,-2.164358,0
2025-06-04T19:30:07.340832,10.175357,0.189142,-2.152387,0
2025-06-04T19:30:07.340832,10.54167,0.208296,-2.274492,0
2025-06-04T19:30:07.340832,10.316615,0.277727,-2.176329,0
2025-06-04T19:30:07.340832,10.524911,0.342371,-2.442086,0
2025-06-04T19:30:07.340832,10.419566,0.325611,-2.413355,0
2025-06-04T19:30:07.340832,10.25676,0.323217,-2.303222,0
2025-06-04T19:30:07.340832,10.251971,0.335188,-2.358289,0
2025-06-04T19:30:07.349269,10.232818,0.304064,-2.322376,0
2025-06-04T19:30:07.350282,10.141838,0.260968,-2.288857,0
2025-06-04T19:30:07.350282,10.141838,0.241814,-2.219425,0
2025-06-04T19:30:07.350282,10.125079,0.227449,-2.209848,0
2025-06-04T19:30:07.350282,9.919178,0.177171,-2.169147,0
2025-06-04T19:30:07.350282,9.840169,0.251391,-2.157176,0
2025-06-04T19:30:07.350282,10.036493,0.205901,-2.267309,0
2025-06-04T19:30:07.350282,10.012551,0.174777,-2.116474,0
2025-06-04T19:30:07.350282,9.998186,0.191536,-2.087744,0
2025-06-04T19:30:07.350282,10.175357,0.198719,-2.207454,0
2025-06-04T19:30:07.350282,10.168175,0.169988,-2.169147,0
2025-06-04T19:30:07.350282,10.19451,0.191536,-2.173935,0
2025-06-04T19:30:07.350282,10.240001,0.222661,-2.200271,0
2025-06-04T19:30:07.350282,10.261548,0.234632,-2.272097,0
2025-06-04T19:30:07.350282,10.187328,0.225055,-2.274492,0
2025-06-04T19:30:07.350282,10.199299,0.222661,-2.245761,0
2025-06-04T19:30:07.350282,10.081984,0.196325,-2.13084,0
2025-06-04T19:30:07.350282,10.144233,0.179565,-2.190695,0
2025-06-04T19:30:07.350282,10.25676,0.203507,-2.236184,0
2025-06-04T19:30:07.350282,10.21127,0.189142,-2.178724,0
2025-06-04T19:30:07.357579,10.218452,0.191536,-2.197877,0
2025-06-04T19:30:07.357579,10.266336,0.213084,-2.221819,0
2025-06-04T19:30:07.357579,10.242394,0.23942,-2.252944,0
2025-06-04T19:30:07.357579,10.251971,0.258574,-2.286463,0
2025-06-04T19:30:07.357579,10.175357,0.272939,-2.262521,0
2025-06-04T19:30:07.357579,10.127473,0.287304,-2.322376,0
2025-06-04T19:30:07.357579,10.108319,0.272939,-2.298434,0
2025-06-04T19:30:07.357579,10.081984,0.21069,-2.176329,0
2025-06-04T19:30:07.357579,10.0748,0.217872,-2.171541,0
2025-06-04T19:30:07.357579,10.134656,0.208296,-2.200271,0
2025-06-04T19:30:07.357579,10.122684,0.177171,-2.166753,0
2025-06-04T19:30:07.357579,10.156203,0.186748,-2.173935,0
2025-06-04T19:30:07.357579,10.208876,0.184354,-2.193089,0
2025-06-04T19:30:07.357579,10.216059,0.21069,-2.219425,0
2025-06-04T19:30:07.357579,10.328587,0.213084,-2.212242,0
2025-06-04T19:30:07.357579,10.429143,0.217872,-2.303222,0
2025-06-04T19:30:07.357579,10.354922,0.234632,-2.276886,0
2025-06-04T19:30:07.357579,10.311827,0.260968,-2.305616,0
2025-06-04T19:30:07.365650,10.307038,0.268151,-2.286463,2
2025-06-04T19:30:07.365650,10.290278,0.28491,-2.317587,0
2025-06-04T19:30:07.365650,10.25676,0.287304,-2.288857,0
2025-06-04T19:30:10.483256,10.223241,0.292093,-2.284068,0
2025-06-04T19:30:10.484074,10.199299,0.268151,-2.274492,0
2025-06-04T19:30:10.484074,10.204087,0.263362,-2.217031,0
2025-06-04T19:30:10.484074,10.151415,0.241814,-2.212242,0
2025-06-04T19:30:10.484074,10.156203,0.220267,-2.221819,0
2025-06-04T19:30:10.484074,10.170568,0.225055,-2.183512,0
2025-06-04T19:30:10.484074,10.180145,0.196325,-2.209848,0
2025-06-04T19:30:10.484074,10.15381,0.220267,-2.193089,0
2025-06-04T19:30:10.484074,10.15381,0.213084,-2.193089,0
2025-06-04T19:30:10.484074,10.199299,0.201113,-2.212242,0
2025-06-04T19:30:10.484074,10.240001,0.213084,-2.221819,0
2025-06-04T19:30:10.484074,10.218452,0.232238,-2.231396,0
2025-06-04T19:30:10.484074,10.237606,0.241814,-2.248155,0
2025-06-04T19:30:10.484074,10.232818,0.25618,-2.23379,0
2025-06-04T19:30:10.484074,10.232818,0.246603,-2.231396,0
2025-06-04T19:30:10.484074,10.206482,0.246603,-2.252944,0
2025-06-04T19:30:10.491270,10.223241,0.232238,-2.248155,0
2025-06-04T19:30:10.492347,10.225636,0.251391,-2.238579,0
2025-06-04T19:30:10.492347,10.201694,0.246603,-2.236184,0
2025-06-04T19:30:10.492347,10.206482,0.244209,-2.25055,0
2025-06-04T19:30:10.492347,10.206482,0.227449,-2.219425,0
2025-06-04T19:30:10.492347,10.184934,0.225055,-2.219425,0
2025-06-04T19:30:10.492347,10.192117,0.244209,-2.262521,0
2025-06-04T19:30:10.492347,10.199299,0.232238,-2.25055,0
2025-06-04T19:30:10.492347,10.201694,0.244209,-2.255338,0
2025-06-04T19:30:10.492347,10.21127,0.23942,-2.262521,0
2025-06-04T19:30:10.492347,10.208876,0.260968,-2.240973,0
2025-06-04T19:30:10.492347,10.206482,0.265756,-2.229002,0
2025-06-04T19:30:10.492347,10.218452,0.237026,-2.257732,0
2025-06-04T19:30:10.499598,10.19451,0.220267,-2.231396,0
2025-06-04T19:30:10.500654,10.235212,0.217872,-2.248155,0
2025-06-04T19:30:10.500654,10.208876,0.222661,-2.202666,0
2025-06-04T19:30:10.500654,10.230424,0.21069,-2.231396,0
2025-06-04T19:30:10.500654,10.225636,0.258574,-2.212242,0
2025-06-04T19:30:10.500654,10.208876,0.248997,-2.219425,0
2025-06-04T19:30:10.500654,10.218452,0.244209,-2.262521,0
2025-06-04T19:30:10.500654,10.220847,0.244209,-2.248155,0
2025-06-04T19:30:10.500654,10.220847,0.263362,-2.231396,0
2025-06-04T19:30:10.500654,10.199299,0.23942,-2.226608,0
2025-06-04T19:30:10.500654,10.216059,0.23942,-2.248155,0
2025-06-04T19:30:10.500654,10.208876,0.234632,-2.219425,0
2025-06-04T19:30:10.500654,10.201694,0.227449,-2.217031,0
2025-06-04T19:30:10.507798,10.21127,0.237026,-2.248155,0
2025-06-04T19:30:10.507798,10.201694,0.220267,-2.221819,0
2025-06-04T19:30:10.507798,10.201694,0.215478,-2.255338,0
2025-06-04T19:30:10.507798,10.196905,0.244209,-2.226608,0
2025-06-04T19:30:10.507798,10.213664,0.234632,-2.240973,0
2025-06-04T19:30:10.507798,10.213664,0.237026,-2.245761,0
2025-06-04T19:30:10.507798,10.199299,0.25618,-2.226608,0
2025-06-04T19:30:10.507798,10.199299,0.232238,-2.195483,0
2025-06-04T19:30:10.507798,10.223241,0.23942,-2.238579,0
2025-06-04T19:30:10.507798,10.21127,0.229843,-2.257732,0
2025-06-04T19:30:10.507798,10.208876,0.234632,-2.23379,0
2025-06-04T19:30:10.507798,10.218452,0.241814,-2.243367,0
2025-06-04T19:30:10.507798,10.192117,0.232238,-2.231396,0
2025-06-04T19:30:10.507798,10.220847,0.234632,-2.243367,0
2025-06-04T19:30:10.516038,10.206482,0.246603,-2.229002,0
2025-06-04T19:30:10.516038,10.206482,0.244209,-2.219425,0
2025-06-04T19:30:10.516038,10.206482,0.244209,-2.226608,0
2025-06-04T19:30:10.516038,10.196905,0.222661,-2.240973,0
2025-06-04T19:30:10.516038,10.201694,0.23942,-2.202666,0
2025-06-04T19:30:10.516038,10.187328,0.227449,-2.221819,0
2025-06-04T19:30:10.516038,10.192117,0.222661,-2.231396,0
2025-06-04T19:30:10.516038,10.18254,0.222661,-2.274492,0
2025-06-04T19:30:10.516038,10.213664,0.241814,-2.23379,0
2025-06-04T19:30:10.516038,10.228029,0.260968,-2.226608,0
2025-06-04T19:30:10.516038,10.21127,0.244209,-2.243367,0
2025-06-04T19:30:10.516038,10.21127,0.253785,-2.226608,0
2025-06-04T19:30:10.516038,10.18254,0.229843,-2.221819,0
2025-06-04T19:30:10.516038,10.218452,0.225055,-2.229002,0
2025-06-04T19:30:10.516038,10.220847,0.244209,-2.217031,0
2025-06-04T19:30:10.524325,10.225636,0.23942,-2.245761,0
2025-06-04T19:30:10.524325,10.206482,0.229843,-2.226608,0
2025-06-04T19:30:10.524325,10.21127,0.241814,-2.236184,0
2025-06-04T19:30:10.524325,10.218452,0.253785,-2.231396,0
2025-06-04T19:30:10.524325,10.216059,0.241814,-2.274492,0
2025-06-04T19:30:10.524325,10.213664,0.25618,-2.243367,0
2025-06-04T19:30:10.524325,10.201694,0.251391,-2.248155,0
2025-06-04T19:30:10.524325,10.218452,0.253785,-2.245761,0
2025-06-04T19:30:10.524325,10.199299,0.244209,-2.245761,0
2025-06-04T19:30:10.524325,10.208876,0.232238,-2.238579,0
2025-06-04T19:30:10.524325,10.184934,0.263362,-2.257732,0
2025-06-04T19:30:10.524325,10.151415,0.268151,-2.269703,0
2025-06-04T19:30:10.524325,10.172963,0.289698,-2.25055,0
2025-06-04T19:30:10.524325,10.134656,0.265756,-2.224213,0
2025-06-04T19:30:10.524325,10.129868,0.227449,-2.229002,0
2025-06-04T19:30:10.524325,10.168175,0.241814,-2.207454,0
2025-06-04T19:30:10.524325,10.180145,0.217872,-2.226608,0
2025-06-04T19:30:10.524325,10.15381,0.215478,-2.200271,0
2025-06-04T19:30:10.524325,10.19451,0.19393,-2.219425,0
2025-06-04T19:30:10.532829,10.213664,0.19393,-2.231396,0
2025-06-04T19:30:10.532829,10.213664,0.234632,-2.1883,0
2025-06-04T19:30:10.532829,10.25676,0.234632,-2.23379,0
2025-06-04T19:30:10.532829,10.268731,0.253785,-2.274492,0
2025-06-04T19:30:10.532829,10.232818,0.241814,-2.243367,0
2025-06-04T19:30:10.532829,10.228029,0.258574,-2.269703,0
2025-06-04T19:30:10.532829,10.216059,0.253785,-2.262521,0
2025-06-04T19:30:10.532829,10.223241,0.246603,-2.272097,0
2025-06-04T19:30:10.532829,10.199299,0.244209,-2.226608,0
2025-06-04T19:30:10.532829,10.208876,0.244209,-2.236184,0
2025-06-04T19:30:10.532829,10.364499,0.289698,-2.267309,0
2025-06-04T19:30:10.532829,10.192117,0.292093,-2.276886,0
2025-06-04T19:30:10.532829,10.251971,0.306458,-2.288857,0
2025-06-04T19:30:10.532829,10.213664,0.272939,-2.27928,0
2025-06-04T19:30:10.532829,10.21127,0.287304,-2.303222,0
2025-06-04T19:30:10.532829,10.180145,0.282516,-2.255338,0
2025-06-04T19:30:10.532829,10.175357,0.263362,-2.248155,0
2025-06-04T19:30:10.532829,10.170568,0.237026,-2.214637,0
2025-06-04T19:30:10.532829,10.156203,0.215478,-2.185906,0
2025-06-04T19:30:10.541107,10.175357,0.201113,-2.185906,0
2025-06-04T19:30:10.541107,10.175357,0.198719,-2.181118,0
2025-06-04T19:30:10.541107,10.204087,0.189142,-2.185906,0
2025-06-04T19:30:10.541107,10.216059,0.234632,-2.229002,0
2025-06-04T19:30:10.541107,10.228029,0.222661,-2.193089,0
2025-06-04T19:30:10.541107,10.249578,0.248997,-2.252944,0
2025-06-04T19:30:10.541107,10.237606,0.248997,-2.245761,0
2025-06-04T19:30:10.541107,10.220847,0.253785,-2.267309,0
2025-06-04T19:30:10.541107,10.201694,0.251391,-2.262521,0
2025-06-04T19:30:10.541107,10.192117,0.241814,-2.224213,0
2025-06-04T19:30:10.541107,10.18254,0.213084,-2.226608,0
2025-06-04T19:30:10.541107,10.189722,0.201113,-2.200271,0
2025-06-04T19:30:10.541107,10.19451,0.198719,-2.178724,0
2025-06-04T19:30:10.541107,10.21127,0.222661,-2.217031,0
2025-06-04T19:30:10.541107,10.196905,0.234632,-2.212242,0
2025-06-04T19:30:10.541107,10.201694,0.213084,-2.217031,0
2025-06-04T19:30:10.541107,10.213664,0.241814,-2.267309,0
2025-06-04T19:30:10.541107,10.196905,0.244209,-2.240973,0
2025-06-04T19:30:10.549489,10.240001,0.248997,-2.274492,0
2025-06-04T19:30:10.549489,10.232818,0.263362,-2.274492,0
2025-06-04T19:30:10.549489,10.225636,0.260968,-2.284068,0
2025-06-04T19:30:10.549489,10.21127,0.25618,-2.226608,0
2025-06-04T19:30:10.549489,10.218452,0.246603,-2.240973,0
2025-06-04T19:30:10.549489,10.21127,0.246603,-2.248155,0
2025-06-04T19:30:10.549489,10.216059,0.241814,-2.23379,0
2025-06-04T19:30:10.549489,10.196905,0.251391,-2.252944,0
2025-06-04T19:30:10.549489,10.419566,0.277727,-2.310405,0
2025-06-04T19:30:10.549489,10.232818,0.251391,-2.238579,1
2025-06-04T19:30:10.549489,10.259154,0.292093,-2.312799,0
2025-06-04T19:30:10.549489,10.242394,0.296881,-2.300828,0
2025-06-04T19:30:14.292471,10.247183,0.275333,-2.269703,0
2025-06-04T19:30:14.292471,10.220847,0.275333,-2.276886,0
2025-06-04T19:30:14.292471,10.220847,0.263362,-2.291251,0
2025-06-04T19:30:14.292471,10.199299,0.248997,-2.229002,0
2025-06-04T19:30:14.292471,10.199299,0.244209,-2.209848,0
2025-06-04T19:30:14.292471,10.16578,0.222661,-2.20506,0
2025-06-04T19:30:14.292471,10.163386,0.222661,-2.202666,0
2025-06-04T19:30:14.292471,10.172963,0.208296,-2.1883,0
2025-06-04T19:30:14.292471,10.199299,0.215478,-2.185906,0
2025-06-04T19:30:14.292471,10.206482,0.21069,-2.238579,0
2025-06-04T19:30:14.292471,10.225636,0.220267,-2.25055,0
2025-06-04T19:30:14.292471,10.201694,0.225055,-2.219425,0
2025-06-04T19:30:14.292471,10.110714,0.225055,-2.185906,0
2025-06-04T19:30:14.292471,10.072407,0.272939,-2.219425,0
2025-06-04T19:30:14.292471,10.103531,0.268151,-2.257732,0
2025-06-04T19:30:14.300691,10.132261,0.213084,-2.221819,0
2025-06-04T19:30:14.301807,10.096349,0.220267,-2.149993,0
2025-06-04T19:30:14.301807,10.139444,0.21069,-2.221819,0
2025-06-04T19:30:14.301807,10.175357,0.203507,-2.178724,0
2025-06-04T19:30:14.301807,10.149021,0.196325,-2.149993,0
2025-06-04T19:30:14.301807,10.187328,0.21069,-2.181118,0
2025-06-04T19:30:14.301807,10.228029,0.21069,-2.195483,0
2025-06-04T19:30:14.301807,10.240001,0.220267,-2.243367,0
2025-06-04T19:30:14.309310,10.244789,0.25618,-2.260126,0
2025-06-04T19:30:14.309310,10.25676,0.268151,-2.257732,0
2025-06-04T19:30:14.309310,10.261548,0.282516,-2.286463,0
2025-06-04T19:30:14.309310,10.249578,0.275333,-2.274492,0
2025-06-04T19:30:14.309310,10.086772,0.23942,-2.267309,0
2025-06-04T19:30:14.309310,9.947908,0.265756,-2.178724,0
2025-06-04T19:30:14.309310,9.991004,0.253785,-2.183512,0
2025-06-04T19:30:14.309310,10.093954,0.162806,-2.185906,0
2025-06-04T19:30:14.309310,10.038888,0.167594,-2.118869,0
2025-06-04T19:30:14.309310,10.117896,0.191536,-2.15957,0
2025-06-04T19:30:14.309310,10.160992,0.181959,-2.164358,0
2025-06-04T19:30:14.309310,10.192117,0.191536,-2.149993,0
2025-06-04T19:30:14.309310,10.206482,0.19393,-2.1883,0
2025-06-04T19:30:14.316593,10.223241,0.225055,-2.231396,0
2025-06-04T19:30:14.316593,10.268731,0.229843,-2.257732,0
2025-06-04T19:30:14.316593,10.263943,0.260968,-2.276886,0
2025-06-04T19:30:14.316593,10.237606,0.251391,-2.284068,0
2025-06-04T19:30:14.316593,10.228029,0.251391,-2.286463,0
2025-06-04T19:30:14.316593,10.216059,0.246603,-2.260126,0
2025-06-04T19:30:14.316593,10.216059,0.253785,-2.248155,0
2025-06-04T19:30:14.316593,10.043676,0.222661,-2.224213,0
2025-06-04T19:30:14.316593,9.94312,0.260968,-2.169147,0
2025-06-04T19:30:14.316593,10.000581,0.246603,-2.20506,0
2025-06-04T19:30:14.316593,10.0748,0.169988,-2.169147,0
2025-06-04T19:30:14.316593,10.04607,0.179565,-2.13084,0
2025-06-04T19:30:14.316593,10.139444,0.172383,-2.152387,0
2025-06-04T19:30:14.316593,10.192117,0.179565,-2.149993,0
2025-06-04T19:30:14.316593,10.177752,0.174777,-2.164358,0
2025-06-04T19:30:14.316593,10.218452,0.203507,-2.183512,0
2025-06-04T19:30:14.325012,10.254366,0.217872,-2.212242,0
2025-06-04T19:30:14.325012,10.247183,0.253785,-2.248155,0
2025-06-04T19:30:14.325012,10.287885,0.270545,-2.255338,0
2025-06-04T19:30:14.325012,10.247183,0.270545,-2.284068,0
2025-06-04T19:30:14.325012,10.235212,0.294487,-2.264915,0
2025-06-04T19:30:14.325012,10.141838,0.260968,-2.272097,0
2025-06-04T19:30:14.325012,10.084377,0.220267,-2.236184,0
2025-06-04T19:30:14.325012,10.072407,0.158017,-2.090138,0
2025-06-04T19:30:14.325012,10.113108,0.143652,-2.109292,0
2025-06-04T19:30:14.325012,10.223241,0.155623,-2.166753,0
2025-06-04T19:30:14.325012,10.228029,0.169988,-2.173935,0
2025-06-04T19:30:14.325012,10.242394,0.191536,-2.178724,0
2025-06-04T19:30:14.325012,10.280702,0.203507,-2.243367,0
2025-06-04T19:30:14.333426,10.287885,0.227449,-2.267309,0
2025-06-04T19:30:14.333426,10.261548,0.268151,-2.293645,0
2025-06-04T19:30:14.333426,10.271125,0.270545,-2.27928,0
2025-06-04T19:30:14.333426,10.247183,0.280122,-2.293645,0
2025-06-04T19:30:14.333426,10.218452,0.253785,-2.257732,0
2025-06-04T19:30:14.333426,10.199299,0.241814,-2.25055,0
2025-06-04T19:30:14.333426,10.177752,0.241814,-2.226608,0
2025-06-04T19:30:14.333426,10.168175,0.23942,-2.212242,0
2025-06-04T19:30:14.333426,10.168175,0.208296,-2.195483,0
2025-06-04T19:30:14.333426,10.19451,0.198719,-2.197877,0
2025-06-04T19:30:14.333426,10.192117,0.227449,-2.255338,0
2025-06-04T19:30:14.333426,10.108319,0.213084,-2.183512,0
2025-06-04T19:30:14.333426,10.048465,0.25618,-2.195483,0
2025-06-04T19:30:14.333426,10.0748,0.251391,-2.202666,0
2025-06-04T19:30:14.333426,10.125079,0.201113,-2.214637,0
2025-06-04T19:30:14.333426,10.125079,0.203507,-2.149993,0
2025-06-04T19:30:14.341928,10.160992,0.196325,-2.181118,0
2025-06-04T19:30:14.341928,10.168175,0.189142,-2.20506,0
2025-06-04T19:30:14.341928,10.204087,0.196325,-2.183512,0
2025-06-04T19:30:14.341928,10.216059,0.220267,-2.221819,0
2025-06-04T19:30:14.341928,10.240001,0.229843,-2.23379,0
2025-06-04T19:30:14.341928,10.235212,0.248997,-2.231396,0
2025-06-04T19:30:14.341928,10.25676,0.25618,-2.272097,0
2025-06-04T19:30:14.341928,10.242394,0.253785,-2.226608,0
2025-06-04T19:30:14.341928,10.232818,0.251391,-2.276886,0
2025-06-04T19:30:14.341928,10.206482,0.251391,-2.272097,0
2025-06-04T19:30:14.341928,10.374076,0.260968,-2.214637,0
2025-06-04T19:30:14.341928,10.364499,0.225055,-2.269703,0
2025-06-04T19:30:14.341928,10.364499,0.227449,-2.298434,0
2025-06-04T19:30:14.341928,10.326192,0.258574,-2.291251,0
2025-06-04T19:30:14.341928,10.27352,0.241814,-2.284068,0
2025-06-04T19:30:14.341928,10.278308,0.265756,-2.303222,0
2025-06-04T19:30:14.341928,10.263943,0.294487,-2.298434,0
2025-06-04T19:30:14.341928,10.251971,0.282516,-2.27928,0
2025-06-04T19:30:14.341928,10.213664,0.280122,-2.291251,0
2025-06-04T19:30:14.341928,10.18254,0.263362,-2.238579,0
2025-06-04T19:30:14.350549,10.19451,0.229843,-2.219425,0
2025-06-04T19:30:14.350549,10.172963,0.225055,-2.200271,0
2025-06-04T19:30:14.350549,10.172963,0.213084,-2.197877,0
2025-06-04T19:30:14.350549,10.168175,0.201113,-2.193089,0
2025-06-04T19:30:14.350549,10.19451,0.21069,-2.209848,0
2025-06-04T19:30:14.350549,10.338163,0.25618,-2.264915,0
2025-06-04T19:30:14.350549,10.268731,0.287304,-2.310405,0
2025-06-04T19:30:14.350549,10.220847,0.347159,-2.32477,0
2025-06-04T19:30:14.350549,10.158598,0.304064,-2.315193,0
2025-06-04T19:30:14.350549,10.216059,0.282516,-2.27928,0
2025-06-04T19:30:14.350549,10.141838,0.251391,-2.267309,0
2025-06-04T19:30:14.350549,10.129868,0.251391,-2.243367,0
2025-06-04T19:30:14.350549,10.132261,0.215478,-2.20506,0
2025-06-04T19:30:14.350549,10.15381,0.21069,-2.190695,0
2025-06-04T19:30:14.350549,10.168175,0.208296,-2.152387,0
2025-06-04T19:30:14.350549,10.187328,0.191536,-2.173935,0
2025-06-04T19:30:14.350549,10.19451,0.203507,-2.217031,0
2025-06-04T19:30:14.358656,10.228029,0.237026,-2.226608,0
2025-06-04T19:30:14.359192,10.216059,0.251391,-2.224213,0
2025-06-04T19:30:14.359192,10.180145,0.263362,-2.229002,0
2025-06-04T19:30:14.359192,10.127473,0.287304,-2.293645,0
2025-06-04T19:30:14.359192,10.170568,0.282516,-2.298434,0
2025-06-04T19:30:14.359192,10.117896,0.248997,-2.209848,0
2025-06-04T19:30:14.359192,10.086772,0.234632,-2.207454,0
2025-06-04T19:30:14.359192,10.158598,0.232238,-2.20506,0
2025-06-04T19:30:14.359192,10.141838,0.205901,-2.169147,0
2025-06-04T19:30:14.359192,10.134656,0.198719,-2.171541,0
2025-06-04T19:30:14.359192,10.163386,0.201113,-2.195483,0
2025-06-04T19:30:14.359192,10.192117,0.179565,-2.164358,0
2025-06-04T19:30:14.359192,10.208876,0.21069,-2.238579,0
2025-06-04T19:30:14.359192,10.244789,0.225055,-2.245761,0
2025-06-04T19:30:14.359192,10.259154,0.246603,-2.229002,0
2025-06-04T19:30:14.359192,10.259154,0.251391,-2.274492,0
2025-06-04T19:30:14.359192,10.242394,0.280122,-2.291251,0
2025-06-04T19:30:14.366734,10.352529,0.299275,-2.317587,0
2025-06-04T19:30:14.367049,10.268731,0.320823,-2.348712,0
2025-06-04T19:30:14.367727,10.201694,0.344765,-2.305616,0
2025-06-04T19:30:14.367727,10.096349,0.289698,-2.260126,0
2025-06-04T19:30:14.367727,10.149021,0.25618,-2.288857,0
2025-06-04T19:30:14.367727,10.129868,0.23942,-2.214637,0
2025-06-04T19:30:14.367727,10.125079,0.234632,-2.209848,0
2025-06-04T19:30:14.367727,10.156203,0.19393,-2.214637,0
2025-06-04T19:30:14.367727,10.15381,0.174777,-2.224213,0
2025-06-04T19:30:14.367727,10.170568,0.208296,-2.197877,0
2025-06-04T19:30:14.371392,10.187328,0.205901,-2.224213,0
2025-06-04T19:30:14.371392,10.240001,0.232238,-2.23379,0
2025-06-04T19:30:14.371392,10.230424,0.232238,-2.269703,0
2025-06-04T19:30:14.371392,10.251971,0.241814,-2.272097,0
2025-06-04T19:30:14.371392,10.261548,0.253785,-2.296039,0
2025-06-04T19:30:14.371392,10.187328,0.220267,-2.248155,0
2025-06-04T19:30:14.371392,10.170568,0.220267,-2.219425,0
2025-06-04T19:30:14.371392,10.129868,0.153229,-2.140416,0
2025-06-04T19:30:14.371392,10.115502,0.169988,-2.11408,0
2025-06-04T19:30:14.371392,10.235212,0.184354,-2.217031,0
2025-06-04T19:30:14.374950,10.208876,0.196325,-2.152387,0
2025-06-04T19:30:14.375357,10.216059,0.198719,-2.193089,0
2025-06-04T19:30:14.375768,10.25676,0.208296,-2.264915,0
2025-06-04T19:30:14.375768,10.251971,0.232238,-2.245761,0
2025-06-04T19:30:14.375768,10.25676,0.248997,-2.267309,0
2025-06-04T19:30:14.375768,10.249578,0.268151,-2.264915,0
2025-06-04T19:30:14.375768,10.230424,0.263362,-2.286463,0
2025-06-04T19:30:14.375768,10.206482,0.265756,-2.260126,2
2025-06-04T19:30:14.375768,10.223241,0.253785,-2.238579,0
2025-06-04T19:30:14.375768,10.201694,0.260968,-2.207454,0
2025-06-04T19:30:14.375768,10.187328,0.225055,-2.229002,0
2025-06-04T19:30:16.109561,10.175357,0.232238,-2.23379,0
2025-06-04T19:30:16.109561,10.18254,0.222661,-2.219425,0
2025-06-04T19:30:16.109561,10.213664,0.205901,-2.207454,0
2025-06-04T19:30:16.109561,10.175357,0.201113,-2.190695,0
2025-06-04T19:30:16.109561,10.192117,0.215478,-2.221819,0
2025-06-04T19:30:16.109561,10.21127,0.234632,-2.260126,0
2025-06-04T19:30:16.116619,10.237606,0.232238,-2.255338,0
2025-06-04T19:30:16.117249,10.216059,0.253785,-2.214637,0
2025-06-04T19:30:16.117930,10.220847,0.23942,-2.23379,0
2025-06-04T19:30:16.117930,10.220847,0.251391,-2.25055,0
2025-06-04T19:30:16.117930,10.235212,0.23942,-2.25055,0
2025-06-04T19:30:16.117930,10.218452,0.246603,-2.25055,0
2025-06-04T19:30:16.117930,10.201694,0.248997,-2.257732,0
2025-06-04T19:30:16.117930,10.225636,0.241814,-2.245761,0
2025-06-04T19:30:16.121014,10.199299,0.25618,-2.255338,0
2025-06-04T19:30:16.121014,10.208876,0.217872,-2.231396,0
2025-06-04T19:30:16.121014,10.208876,0.232238,-2.23379,0
2025-06-04T19:30:16.121014,10.218452,0.244209,-2.23379,0
2025-06-04T19:30:16.121014,10.216059,0.229843,-2.25055,0
2025-06-04T19:30:16.124786,10.201694,0.229843,-2.252944,0
2025-06-04T19:30:16.124786,10.208876,0.23942,-2.238579,0
2025-06-04T19:30:16.125802,10.201694,0.229843,-2.243367,0
2025-06-04T19:30:16.125802,10.201694,0.234632,-2.248155,0
2025-06-04T19:30:16.125802,10.21127,0.234632,-2.245761,0
2025-06-04T19:30:16.125802,10.216059,0.244209,-2.23379,0
2025-06-04T19:30:16.125802,10.204087,0.244209,-2.255338,0
2025-06-04T19:30:16.125802,10.216059,0.227449,-2.238579,0
2025-06-04T19:30:16.125802,10.192117,0.220267,-2.219425,0
2025-06-04T19:30:16.125802,10.204087,0.234632,-2.240973,0
2025-06-04T19:30:16.132955,10.196905,0.251391,-2.255338,0
2025-06-04T19:30:16.132955,10.213664,0.23942,-2.221819,0
2025-06-04T19:30:16.132955,10.204087,0.23942,-2.248155,0
2025-06-04T19:30:16.132955,10.199299,0.225055,-2.252944,0
2025-06-04T19:30:16.132955,10.218452,0.251391,-2.212242,0
2025-06-04T19:30:16.132955,10.213664,0.248997,-2.240973,0
2025-06-04T19:30:16.132955,10.218452,0.232238,-2.221819,0
2025-06-04T19:30:16.132955,10.235212,0.25618,-2.229002,0
2025-06-04T19:30:16.132955,10.208876,0.253785,-2.219425,0
2025-06-04T19:30:16.132955,10.189722,0.23942,-2.23379,0
2025-06-04T19:30:16.132955,10.208876,0.23942,-2.23379,0
2025-06-04T19:30:16.132955,10.204087,0.241814,-2.245761,0
2025-06-04T19:30:16.132955,10.196905,0.258574,-2.238579,0
2025-06-04T19:30:16.132955,10.204087,0.25618,-2.260126,0
2025-06-04T19:30:16.132955,10.199299,0.222661,-2.240973,0
2025-06-04T19:30:16.141258,10.218452,0.227449,-2.23379,0
2025-06-04T19:30:16.141258,10.208876,0.234632,-2.248155,0
2025-06-04T19:30:16.141258,10.218452,0.234632,-2.23379,0
2025-06-04T19:30:16.141258,10.196905,0.244209,-2.236184,0
2025-06-04T19:30:16.141258,10.196905,0.227449,-2.23379,0
2025-06-04T19:30:16.141258,10.218452,0.213084,-2.229002,0
2025-06-04T19:30:16.141258,10.199299,0.232238,-2.226608,0
2025-06-04T19:30:16.141258,10.208876,0.229843,-2.243367,0
2025-06-04T19:30:16.141258,10.208876,0.244209,-2.231396,0
2025-06-04T19:30:16.141258,10.208876,0.246603,-2.245761,0
2025-06-04T19:30:16.141258,10.216059,0.23942,-2.252944,0
2025-06-04T19:30:16.141258,10.19451,0.217872,-2.212242,0
2025-06-04T19:30:16.141258,10.216059,0.241814,-2.248155,0
2025-06-04T19:30:16.141258,10.230424,0.23942,-2.212242,0
2025-06-04T19:30:16.149610,10.204087,0.225055,-2.229002,0
2025-06-04T19:30:16.149610,10.213664,0.220267,-2.267309,0
2025-06-04T19:30:16.149610,10.204087,0.248997,-2.272097,0
2025-06-04T19:30:16.149610,10.223241,0.251391,-2.248155,0
2025-06-04T19:30:16.149610,10.218452,0.248997,-2.248155,0
2025-06-04T19:30:16.149610,10.206482,0.25618,-2.240973,0
2025-06-04T19:30:16.149610,10.192117,0.234632,-2.229002,0
2025-06-04T19:30:16.149610,10.204087,0.227449,-2.209848,0
2025-06-04T19:30:16.149610,10.201694,0.227449,-2.214637,0
2025-06-04T19:30:16.149610,10.208876,0.229843,-2.226608,0
2025-06-04T19:30:16.149610,10.220847,0.215478,-2.240973,0
2025-06-04T19:30:16.149610,10.201694,0.222661,-2.243367,0
2025-06-04T19:30:16.149610,10.21127,0.244209,-2.243367,0
2025-06-04T19:30:16.149610,10.21127,0.234632,-2.245761,0
2025-06-04T19:30:16.149610,10.206482,0.244209,-2.245761,0
2025-06-04T19:30:16.157688,10.228029,0.258574,-2.267309,0
2025-06-04T19:30:16.158725,10.216059,0.244209,-2.257732,0
2025-06-04T19:30:16.158725,10.204087,0.232238,-2.243367,0
2025-06-04T19:30:16.158725,10.21127,0.237026,-2.245761,1
2025-06-04T19:30:16.158725,10.21127,0.244209,-2.231396,0
2025-06-04T19:30:19.426665,10.218452,0.229843,-2.214637,0
2025-06-04T19:30:19.426665,10.216059,0.251391,-2.226608,0
2025-06-04T19:30:19.426665,10.220847,0.265756,-2.252944,0
2025-06-04T19:30:19.426665,10.237606,0.222661,-2.221819,0
2025-06-04T19:30:19.426665,10.220847,0.234632,-2.219425,0
2025-06-04T19:30:19.426665,10.208876,0.270545,-2.226608,0
2025-06-04T19:30:19.431575,10.218452,0.23942,-2.226608,0
2025-06-04T19:30:19.431575,10.220847,0.241814,-2.238579,0
2025-06-04T19:30:19.431575,10.223241,0.237026,-2.197877,0
2025-06-04T19:30:19.431575,10.223241,0.237026,-2.231396,0
2025-06-04T19:30:19.434816,10.213664,0.237026,-2.212242,0
2025-06-04T19:30:19.435363,10.213664,0.222661,-2.243367,0
2025-06-04T19:30:19.435363,10.201694,0.246603,-2.217031,0
2025-06-04T19:30:19.435363,10.206482,0.272939,-2.248155,0
2025-06-04T19:30:19.435363,10.184934,0.237026,-2.236184,0
2025-06-04T19:30:19.435363,10.196905,0.241814,-2.25055,0
2025-06-04T19:30:19.435363,10.19451,0.253785,-2.262521,0
2025-06-04T19:30:19.440080,10.223241,0.241814,-2.236184,0
2025-06-04T19:30:19.440080,10.196905,0.229843,-2.243367,0
2025-06-04T19:30:19.442435,10.199299,0.225055,-2.23379,0
2025-06-04T19:30:19.443630,10.192117,0.220267,-2.23379,0
2025-06-04T19:30:19.443630,10.232818,0.220267,-2.214637,0
2025-06-04T19:30:19.443630,10.213664,0.227449,-2.229002,0
2025-06-04T19:30:19.443630,10.192117,0.220267,-2.236184,0
2025-06-04T19:30:19.443630,10.213664,0.248997,-2.245761,0
2025-06-04T19:30:19.448527,10.196905,0.251391,-2.214637,0
2025-06-04T19:30:19.448527,10.208876,0.244209,-2.245761,0
2025-06-04T19:30:19.448527,10.192117,0.229843,-2.226608,0
2025-06-04T19:30:19.451229,10.196905,0.23942,-2.238579,0
2025-06-04T19:30:19.451229,10.208876,0.237026,-2.23379,0
2025-06-04T19:30:19.451229,10.225636,0.227449,-2.219425,0
2025-06-04T19:30:19.451229,10.204087,0.241814,-2.240973,0
2025-06-04T19:30:19.451229,10.218452,0.225055,-2.23379,0
2025-06-04T19:30:19.456807,10.199299,0.23942,-2.245761,0
2025-06-04T19:30:19.456807,10.220847,0.23942,-2.252944,0
2025-06-04T19:30:19.456807,10.21127,0.241814,-2.255338,0
2025-06-04T19:30:19.459513,10.206482,0.23942,-2.229002,0
2025-06-04T19:30:19.459513,10.225636,0.229843,-2.240973,0
2025-06-04T19:30:19.459513,10.21127,0.237026,-2.231396,0
2025-06-04T19:30:19.459513,10.201694,0.244209,-2.243367,0
2025-06-04T19:30:19.459513,10.216059,0.222661,-2.221819,0
2025-06-04T19:30:19.459513,10.223241,0.229843,-2.224213,0
2025-06-04T19:30:19.464871,10.213664,0.227449,-2.207454,0
2025-06-04T19:30:19.464871,10.204087,0.220267,-2.224213,0
2025-06-04T19:30:19.467355,10.187328,0.229843,-2.243367,0
2025-06-04T19:30:19.467717,10.21127,0.246603,-2.236184,0
2025-06-04T19:30:19.467717,10.230424,0.237026,-2.236184,0
2025-06-04T19:30:19.467717,10.199299,0.229843,-2.236184,0
2025-06-04T19:30:19.467717,10.208876,0.244209,-2.231396,0
2025-06-04T19:30:19.467717,10.208876,0.225055,-2.23379,0
2025-06-04T19:30:19.467717,10.21127,0.220267,-2.23379,0
2025-06-04T19:30:19.473175,10.19451,0.229843,-2.226608,0
2025-06-04T19:30:19.473175,10.196905,0.244209,-2.212242,0
2025-06-04T19:30:19.475447,10.201694,0.23942,-2.245761,0
2025-06-04T19:30:19.475750,10.21127,0.244209,-2.23379,0
2025-06-04T19:30:19.475750,10.199299,0.248997,-2.231396,0
2025-06-04T19:30:19.475750,10.206482,0.248997,-2.224213,0
2025-06-04T19:30:19.475750,10.19451,0.241814,-2.238579,0
2025-06-04T19:30:19.475750,10.196905,0.251391,-2.236184,0
2025-06-04T19:30:19.475750,10.201694,0.241814,-2.23379,0
2025-06-04T19:30:19.475750,10.189722,0.237026,-2.236184,0
2025-06-04T19:30:19.475750,10.220847,0.23942,-2.226608,0
2025-06-04T19:30:19.475750,10.218452,0.234632,-2.23379,0
2025-06-04T19:30:19.475750,10.199299,0.227449,-2.23379,0
2025-06-04T19:30:19.475750,10.201694,0.23942,-2.27928,0
2025-06-04T19:30:19.481437,10.208876,0.225055,-2.238579,0
2025-06-04T19:30:19.481437,10.204087,0.258574,-2.248155,0
2025-06-04T19:30:19.481437,10.208876,0.234632,-2.255338,0
2025-06-04T19:30:19.481437,10.208876,0.227449,-2.212242,0
2025-06-04T19:30:19.481437,10.201694,0.244209,-2.226608,0
2025-06-04T19:30:19.484035,10.213664,0.21069,-2.217031,0
2025-06-04T19:30:19.484035,10.230424,0.234632,-2.224213,0
2025-06-04T19:30:19.484035,10.232818,0.23942,-2.240973,0
2025-06-04T19:30:19.484035,10.208876,0.248997,-2.217031,0
2025-06-04T19:30:19.484035,10.199299,0.251391,-2.240973,0
2025-06-04T19:30:19.484035,10.201694,0.244209,-2.207454,0
2025-06-04T19:30:19.484035,10.223241,0.248997,-2.214637,0
2025-06-04T19:30:19.484035,10.204087,0.251391,-2.226608,0
2025-06-04T19:30:19.489943,10.21127,0.244209,-2.264915,0
2025-06-04T19:30:19.489943,10.204087,0.232238,-2.248155,0
2025-06-04T19:30:19.489943,10.196905,0.237026,-2.229002,0
2025-06-04T19:30:19.489943,10.208876,0.241814,-2.219425,0
2025-06-04T19:30:19.489943,10.201694,0.227449,-2.245761,0
2025-06-04T19:30:19.489943,10.216059,0.234632,-2.245761,0
2025-06-04T19:30:19.489943,10.213664,0.248997,-2.231396,0
2025-06-04T19:30:19.489943,10.206482,0.232238,-2.25055,0
2025-06-04T19:30:19.489943,10.201694,0.246603,-2.267309,0
2025-06-04T19:30:19.489943,10.218452,0.23942,-2.226608,0
2025-06-04T19:30:19.498363,10.208876,0.251391,-2.226608,0
2025-06-04T19:30:19.498363,10.201694,0.241814,-2.224213,0
2025-06-04T19:30:19.498363,10.216059,0.229843,-2.224213,0
2025-06-04T19:30:19.498363,10.21127,0.23942,-2.257732,0
2025-06-04T19:30:19.498363,10.213664,0.237026,-2.231396,0
2025-06-04T19:30:19.498363,10.216059,0.241814,-2.245761,0
2025-06-04T19:30:19.498363,10.216059,0.246603,-2.229002,0
2025-06-04T19:30:19.498363,10.206482,0.227449,-2.217031,0
2025-06-04T19:30:19.498363,10.206482,0.237026,-2.243367,0
2025-06-04T19:30:19.498363,10.225636,0.229843,-2.219425,0
2025-06-04T19:30:19.498363,10.206482,0.217872,-2.226608,0
2025-06-04T19:30:19.498363,10.223241,0.217872,-2.226608,0
2025-06-04T19:30:19.498363,10.213664,0.229843,-2.219425,0
2025-06-04T19:30:19.498363,10.223241,0.227449,-2.248155,0
2025-06-04T19:30:19.498363,10.21127,0.232238,-2.255338,0
2025-06-04T19:30:19.498363,10.206482,0.241814,-2.248155,0
2025-06-04T19:30:19.498363,10.201694,0.248997,-2.25055,0
2025-06-04T19:30:19.506650,10.216059,0.244209,-2.23379,0
2025-06-04T19:30:19.506650,10.213664,0.260968,-2.224213,0
2025-06-04T19:30:19.506650,10.216059,0.25618,-2.219425,0
2025-06-04T19:30:19.506650,10.204087,0.244209,-2.219425,0
2025-06-04T19:30:19.506650,10.232818,0.244209,-2.257732,0
2025-06-04T19:30:19.509164,10.199299,0.234632,-2.236184,0
2025-06-04T19:30:19.509164,10.21127,0.229843,-2.219425,0
2025-06-04T19:30:19.509164,10.21127,0.215478,-2.20506,0
2025-06-04T19:30:19.509164,10.192117,0.237026,-2.231396,0
2025-06-04T19:30:19.509164,10.201694,0.246603,-2.236184,0
2025-06-04T19:30:19.509164,10.192117,0.241814,-2.25055,0
2025-06-04T19:30:19.509164,10.213664,0.234632,-2.226608,0
2025-06-04T19:30:19.509164,10.213664,0.244209,-2.23379,0
2025-06-04T19:30:19.509164,10.220847,0.232238,-2.238579,0
2025-06-04T19:30:19.509164,10.223241,0.244209,-2.221819,0
2025-06-04T19:30:19.509164,10.199299,0.253785,-2.214637,0
2025-06-04T19:30:19.509164,10.220847,0.220267,-2.221819,0
2025-06-04T19:30:19.509164,10.206482,0.227449,-2.207454,0
2025-06-04T19:30:19.509164,10.21127,0.237026,-2.236184,0
2025-06-04T19:30:19.509164,10.199299,0.23942,-2.260126,0
2025-06-04T19:30:19.509164,10.19451,0.23942,-2.226608,0
2025-06-04T19:30:19.515065,10.19451,0.220267,-2.243367,0
2025-06-04T19:30:19.515553,10.216059,0.229843,-2.238579,0
2025-06-04T19:30:19.515939,10.196905,0.244209,-2.238579,0
2025-06-04T19:30:19.515939,10.201694,0.229843,-2.238579,0
2025-06-04T19:30:19.515939,10.199299,0.234632,-2.236184,0
2025-06-04T19:30:19.515939,10.206482,0.21069,-2.226608,0
2025-06-04T19:30:19.517827,10.206482,0.251391,-2.224213,0
2025-06-04T19:30:19.517827,10.220847,0.234632,-2.226608,0
2025-06-04T19:30:19.517827,10.201694,0.253785,-2.243367,0
2025-06-04T19:30:19.517827,10.220847,0.244209,-2.226608,0
2025-06-04T19:30:19.519651,10.220847,0.241814,-2.221819,0
2025-06-04T19:30:19.519651,10.218452,0.241814,-2.255338,0
2025-06-04T19:30:19.519651,10.213664,0.246603,-2.226608,0
2025-06-04T19:30:19.519651,10.230424,0.253785,-2.245761,0
2025-06-04T19:30:19.519651,10.228029,0.23942,-2.248155,0
2025-06-04T19:30:19.519651,10.206482,0.23942,-2.209848,0
2025-06-04T19:30:19.523259,10.237606,0.263362,-2.245761,2
2025-06-04T19:30:19.523259,10.223241,0.241814,-2.257732,0
2025-06-04T19:30:19.523857,10.240001,0.263362,-2.267309,0
2025-06-04T19:30:19.524264,10.232818,0.244209,-2.255338,0
2025-06-04T19:30:21.433947,10.240001,0.25618,-2.240973,0
2025-06-04T19:30:21.433947,10.204087,0.232238,-2.252944,0
2025-06-04T19:30:21.433947,10.235212,0.253785,-2.231396,0
2025-06-04T19:30:21.433947,10.228029,0.222661,-2.226608,0
2025-06-04T19:30:21.433947,10.201694,0.234632,-2.243367,0
2025-06-04T19:30:21.433947,10.235212,0.227449,-2.214637,0
2025-06-04T19:30:21.433947,10.230424,0.222661,-2.221819,0
2025-06-04T19:30:21.433947,10.216059,0.241814,-2.212242,0
2025-06-04T19:30:21.433947,10.21127,0.246603,-2.243367,0
2025-06-04T19:30:21.433947,10.206482,0.237026,-2.231396,0
2025-06-04T19:30:21.433947,10.232818,0.241814,-2.224213,0
2025-06-04T19:30:21.433947,10.213664,0.23942,-2.245761,0
2025-06-04T19:30:21.433947,10.218452,0.241814,-2.243367,0
2025-06-04T19:30:21.433947,10.216059,0.234632,-2.226608,0
2025-06-04T19:30:21.433947,10.206482,0.244209,-2.248155,0
2025-06-04T19:30:21.441989,10.213664,0.225055,-2.226608,0
2025-06-04T19:30:21.442315,10.223241,0.234632,-2.236184,0
2025-06-04T19:30:21.442315,10.189722,0.237026,-2.248155,0
2025-06-04T19:30:21.442315,10.196905,0.217872,-2.243367,0
2025-06-04T19:30:21.442315,10.170568,0.220267,-2.257732,0
2025-06-04T19:30:21.442315,10.213664,0.23942,-2.252944,0
2025-06-04T19:30:21.442315,10.216059,0.241814,-2.257732,0
2025-06-04T19:30:21.442315,10.199299,0.234632,-2.257732,0
2025-06-04T19:30:21.442315,10.208876,0.227449,-2.264915,0
2025-06-04T19:30:21.442315,10.213664,0.222661,-2.214637,0
2025-06-04T19:30:21.442315,10.213664,0.217872,-2.229002,0
2025-06-04T19:30:21.442315,10.206482,0.232238,-2.224213,0
2025-06-04T19:30:21.442315,10.19451,0.234632,-2.248155,0
2025-06-04T19:30:21.450024,10.218452,0.232238,-2.240973,0
2025-06-04T19:30:21.450024,10.230424,0.237026,-2.217031,0
2025-06-04T19:30:21.450024,10.213664,0.237026,-2.231396,0
2025-06-04T19:30:21.450024,10.208876,0.241814,-2.226608,0
2025-06-04T19:30:21.450024,10.206482,0.246603,-2.209848,0
2025-06-04T19:30:21.450024,10.220847,0.234632,-2.217031,0
2025-06-04T19:30:21.450024,10.216059,0.227449,-2.217031,0
2025-06-04T19:30:21.454663,10.228029,0.246603,-2.23379,0
2025-06-04T19:30:21.454663,10.19451,0.220267,-2.240973,0
2025-06-04T19:30:21.454663,10.204087,0.232238,-2.23379,0
2025-06-04T19:30:21.454663,10.201694,0.234632,-2.209848,0
2025-06-04T19:30:21.454663,10.206482,0.244209,-2.214637,0
2025-06-04T19:30:21.458146,10.204087,0.237026,-2.240973,0
2025-06-04T19:30:21.458146,10.206482,0.222661,-2.219425,0
2025-06-04T19:30:21.458146,10.208876,0.246603,-2.224213,0
2025-06-04T19:30:21.458146,10.225636,0.248997,-2.231396,0
2025-06-04T19:30:21.458146,10.232818,0.222661,-2.231396,0
2025-06-04T19:30:21.458146,10.206482,0.222661,-2.243367,0
2025-06-04T19:30:21.458146,10.21127,0.251391,-2.229002,0
2025-06-04T19:30:21.458146,10.220847,0.237026,-2.219425,0
2025-06-04T19:30:21.458146,10.228029,0.241814,-2.245761,0
2025-06-04T19:30:21.458146,10.218452,0.248997,-2.264915,0
2025-06-04T19:30:21.458146,10.187328,0.251391,-2.252944,0
2025-06-04T19:30:21.458146,10.218452,0.260968,-2.245761,0
2025-06-04T19:30:21.458146,10.220847,0.232238,-2.221819,0
2025-06-04T19:30:21.458146,10.216059,0.251391,-2.238579,0
2025-06-04T19:30:21.466323,10.218452,0.232238,-2.252944,0
2025-06-04T19:30:21.466323,10.189722,0.217872,-2.245761,0
2025-06-04T19:30:21.466323,10.199299,0.229843,-2.231396,0
2025-06-04T19:30:21.466323,10.240001,0.244209,-2.221819,0
2025-06-04T19:30:21.466323,10.21127,0.23942,-2.219425,0
2025-06-04T19:30:21.466323,10.220847,0.246603,-2.245761,0
2025-06-04T19:30:21.466323,10.196905,0.246603,-2.264915,0
2025-06-04T19:30:21.466323,10.223241,0.251391,-2.245761,0
2025-06-04T19:30:21.466323,10.204087,0.234632,-2.25055,0
2025-06-04T19:30:21.466323,10.208876,0.234632,-2.243367,0
2025-06-04T19:30:21.466323,10.208876,0.229843,-2.23379,0
2025-06-04T19:30:21.466323,10.223241,0.23942,-2.23379,0
2025-06-04T19:30:21.466323,10.216059,0.208296,-2.231396,0
2025-06-04T19:30:21.466323,10.19451,0.241814,-2.229002,0
2025-06-04T19:30:21.474678,10.19451,0.246603,-2.23379,0
2025-06-04T19:30:21.475204,10.220847,0.227449,-2.245761,0
2025-06-04T19:30:21.476145,10.187328,0.258574,-2.248155,0
2025-06-04T19:30:21.476145,10.189722,0.232238,-2.219425,0
2025-06-04T19:30:21.477154,10.21127,0.241814,-2.229002,0
2025-06-04T19:30:21.477154,10.19451,0.23942,-2.240973,0
2025-06-04T19:30:21.477154,10.213664,0.229843,-2.245761,0
2025-06-04T19:30:21.477154,10.199299,0.244209,-2.238579,0
2025-06-04T19:30:21.478875,10.208876,0.229843,-2.219425,0
2025-06-04T19:30:21.478875,10.21127,0.229843,-2.245761,0
2025-06-04T19:30:21.478875,10.213664,0.225055,-2.252944,0
2025-06-04T19:30:21.480638,10.216059,0.23942,-2.243367,0
2025-06-04T19:30:21.480638,10.220847,0.260968,-2.226608,0
2025-06-04T19:30:21.480638,10.216059,0.23942,-2.255338,0
2025-06-04T19:30:21.480638,10.216059,0.234632,-2.217031,0
2025-06-04T19:30:21.483592,10.204087,0.220267,-2.221819,1
2025-06-04T19:30:21.483592,10.21127,0.213084,-2.219425,0
2025-06-04T19:30:24.175771,10.19451,0.227449,-2.219425,0
2025-06-04T19:30:24.175771,10.18254,0.227449,-2.240973,0
2025-06-04T19:30:24.175771,10.204087,0.241814,-2.236184,0
2025-06-04T19:30:24.175771,10.21127,0.244209,-2.238579,0
2025-06-04T19:30:24.175771,10.192117,0.237026,-2.221819,0
2025-06-04T19:30:24.175771,10.218452,0.237026,-2.236184,0
2025-06-04T19:30:24.175771,10.206482,0.217872,-2.274492,0
2025-06-04T19:30:24.175771,10.208876,0.232238,-2.23379,0
2025-06-04T19:30:24.175771,10.199299,0.237026,-2.221819,0
2025-06-04T19:30:24.175771,10.201694,0.217872,-2.243367,0
2025-06-04T19:30:24.175771,10.242394,0.241814,-2.20506,0
2025-06-04T19:30:24.175771,10.192117,0.222661,-2.231396,0
2025-06-04T19:30:24.182608,10.201694,0.232238,-2.238579,0
2025-06-04T19:30:24.182608,10.206482,0.251391,-2.245761,0
2025-06-04T19:30:24.183718,10.141838,0.237026,-2.221819,0
2025-06-04T19:30:24.183718,10.139444,0.265756,-2.243367,0
2025-06-04T19:30:24.183718,10.141838,0.244209,-2.229002,0
2025-06-04T19:30:24.183718,10.139444,0.215478,-2.200271,0
2025-06-04T19:30:24.183718,10.163386,0.227449,-2.217031,0
2025-06-04T19:30:24.183718,10.180145,0.205901,-2.224213,0
2025-06-04T19:30:24.183718,10.175357,0.213084,-2.202666,0
2025-06-04T19:30:24.183718,10.184934,0.21069,-2.217031,0
2025-06-04T19:30:24.183718,10.196905,0.201113,-2.195483,0
2025-06-04T19:30:24.183718,10.19451,0.237026,-2.207454,0
2025-06-04T19:30:24.183718,10.208876,0.251391,-2.221819,0
2025-06-04T19:30:24.183718,10.199299,0.23942,-2.229002,0
2025-06-04T19:30:24.183718,10.201694,0.244209,-2.243367,0
2025-06-04T19:30:24.183718,10.206482,0.241814,-2.264915,0
2025-06-04T19:30:24.192132,10.225636,0.263362,-2.226608,0
2025-06-04T19:30:24.192132,10.216059,0.244209,-2.23379,0
2025-06-04T19:30:24.192132,10.199299,0.244209,-2.238579,0
2025-06-04T19:30:24.192132,10.240001,0.227449,-2.219425,0
2025-06-04T19:30:24.192132,10.249578,0.213084,-2.221819,0
2025-06-04T19:30:24.192132,10.216059,0.229843,-2.217031,0
2025-06-04T19:30:24.192132,10.254366,0.222661,-2.219425,0
2025-06-04T19:30:24.192132,10.240001,0.241814,-2.221819,0
2025-06-04T19:30:24.192132,10.254366,0.237026,-2.262521,0
2025-06-04T19:30:24.192132,10.220847,0.246603,-2.238579,0
2025-06-04T19:30:24.192132,10.228029,0.251391,-2.252944,0
2025-06-04T19:30:24.199262,10.240001,0.258574,-2.272097,0
2025-06-04T19:30:24.200688,10.230424,0.246603,-2.25055,0
2025-06-04T19:30:24.200688,10.216059,0.248997,-2.236184,0
2025-06-04T19:30:24.200688,10.204087,0.251391,-2.262521,0
2025-06-04T19:30:24.200688,10.175357,0.241814,-2.262521,0
2025-06-04T19:30:24.200688,10.184934,0.232238,-2.231396,0
2025-06-04T19:30:24.200688,10.208876,0.222661,-2.224213,0
2025-06-04T19:30:24.200688,10.163386,0.217872,-2.212242,0
2025-06-04T19:30:24.200688,10.311827,0.237026,-2.236184,0
2025-06-04T19:30:24.200688,10.290278,0.229843,-2.238579,0
2025-06-04T19:30:24.200688,10.280702,0.260968,-2.274492,0
2025-06-04T19:30:24.200688,10.290278,0.263362,-2.267309,0
2025-06-04T19:30:24.200688,10.25676,0.253785,-2.255338,0
2025-06-04T19:30:24.200688,10.232818,0.260968,-2.269703,0
2025-06-04T19:30:24.207289,10.220847,0.265756,-2.264915,0
2025-06-04T19:30:24.207289,10.204087,0.268151,-2.272097,0
2025-06-04T19:30:24.208681,10.172963,0.253785,-2.252944,0
2025-06-04T19:30:24.208681,10.18254,0.25618,-2.217031,0
2025-06-04T19:30:24.209933,10.18254,0.222661,-2.245761,0
2025-06-04T19:30:24.209933,10.177752,0.186748,-2.200271,0
2025-06-04T19:30:24.211670,10.204087,0.205901,-2.1883,0
2025-06-04T19:30:24.211670,10.206482,0.220267,-2.202666,0
2025-06-04T19:30:24.211670,10.21127,0.205901,-2.214637,0
2025-06-04T19:30:24.213494,10.230424,0.237026,-2.219425,0
2025-06-04T19:30:24.213494,10.249578,0.241814,-2.243367,0
2025-06-04T19:30:24.213494,10.163386,0.241814,-2.224213,0
2025-06-04T19:30:24.213494,10.163386,0.248997,-2.236184,0
2025-06-04T19:30:24.215301,10.15381,0.225055,-2.217031,0
2025-06-04T19:30:24.215301,10.156203,0.205901,-2.200271,0
2025-06-04T19:30:24.215301,10.168175,0.213084,-2.190695,0
2025-06-04T19:30:24.215301,10.204087,0.208296,-2.197877,0
2025-06-04T19:30:24.217099,10.201694,0.213084,-2.197877,0
2025-06-04T19:30:24.217099,10.220847,0.225055,-2.209848,0
2025-06-04T19:30:24.217099,10.225636,0.234632,-2.257732,0
2025-06-04T19:30:24.217099,10.223241,0.251391,-2.255338,0
2025-06-04T19:30:24.218789,10.244789,0.23942,-2.255338,0
2025-06-04T19:30:24.218789,10.237606,0.258574,-2.260126,0
2025-06-04T19:30:24.218789,10.235212,0.246603,-2.264915,0
2025-06-04T19:30:24.218789,10.225636,0.263362,-2.281674,0
2025-06-04T19:30:24.220362,10.208876,0.241814,-2.243367,0
2025-06-04T19:30:24.220362,10.201694,0.227449,-2.236184,0
2025-06-04T19:30:24.220362,10.199299,0.222661,-2.229002,0
2025-06-04T19:30:24.220362,10.225636,0.225055,-2.23379,0
2025-06-04T19:30:24.222052,10.21127,0.21069,-2.190695,0
2025-06-04T19:30:24.222052,10.208876,0.220267,-2.224213,0
2025-06-04T19:30:24.222052,10.220847,0.237026,-2.243367,0
2025-06-04T19:30:24.222052,10.16578,0.244209,-2.238579,0
2025-06-04T19:30:24.223781,10.208876,0.253785,-2.252944,0
2025-06-04T19:30:24.223781,10.19451,0.248997,-2.231396,0
2025-06-04T19:30:24.223781,10.19451,0.248997,-2.20506,0
2025-06-04T19:30:24.223781,10.170568,0.248997,-2.217031,0
2025-06-04T19:30:24.225329,10.19451,0.23942,-2.260126,0
2025-06-04T19:30:24.225329,10.19451,0.241814,-2.217031,0
2025-06-04T19:30:24.225329,10.206482,0.227449,-2.217031,0
2025-06-04T19:30:24.227112,10.199299,0.215478,-2.236184,0
2025-06-04T19:30:24.227112,10.204087,0.234632,-2.23379,0
2025-06-04T19:30:24.227112,10.206482,0.234632,-2.238579,0
2025-06-04T19:30:24.228835,10.206482,0.241814,-2.202666,0
2025-06-04T19:30:24.228835,10.201694,0.229843,-2.226608,0
2025-06-04T19:30:24.228835,10.235212,0.246603,-2.224213,0
2025-06-04T19:30:24.228835,10.177752,0.244209,-2.229002,0
2025-06-04T19:30:24.230537,10.163386,0.244209,-2.229002,0
2025-06-04T19:30:24.230537,10.144233,0.253785,-2.231396,0
2025-06-04T19:30:24.230537,10.172963,0.205901,-2.231396,0
2025-06-04T19:30:24.230537,10.175357,0.229843,-2.200271,0
2025-06-04T19:30:24.232262,10.189722,0.246603,-2.219425,0
2025-06-04T19:30:24.232262,10.172963,0.234632,-2.202666,0
2025-06-04T19:30:24.232262,10.199299,0.217872,-2.217031,0
2025-06-04T19:30:24.232262,10.223241,0.225055,-2.190695,0
2025-06-04T19:30:24.232262,10.213664,0.225055,-2.221819,0
2025-06-04T19:30:24.232262,10.223241,0.234632,-2.226608,0
2025-06-04T19:30:24.232262,10.232818,0.246603,-2.252944,0
2025-06-04T19:30:24.232262,10.223241,0.253785,-2.23379,0
2025-06-04T19:30:24.232262,10.237606,0.248997,-2.25055,0
2025-06-04T19:30:24.232262,10.175357,0.28491,-2.267309,0
2025-06-04T19:30:24.232262,10.16578,0.268151,-2.260126,0
2025-06-04T19:30:24.232262,10.151415,0.23942,-2.217031,0
2025-06-04T19:30:24.232262,10.141838,0.229843,-2.224213,0
2025-06-04T19:30:24.240742,10.18254,0.234632,-2.231396,2
2025-06-04T19:30:24.240742,10.177752,0.201113,-2.214637,0
2025-06-04T19:30:24.240742,10.184934,0.205901,-2.181118,0
2025-06-04T19:30:25.868331,10.206482,0.201113,-2.190695,0
2025-06-04T19:30:25.875803,10.216059,0.203507,-2.181118,0
2025-06-04T19:30:25.875803,10.213664,0.215478,-2.221819,0
2025-06-04T19:30:25.876529,10.230424,0.246603,-2.252944,0
2025-06-04T19:30:25.876529,10.223241,0.246603,-2.243367,0
2025-06-04T19:30:25.876529,10.208876,0.260968,-2.257732,0
2025-06-04T19:30:25.876529,10.216059,0.244209,-2.255338,0
2025-06-04T19:30:25.876529,10.225636,0.25618,-2.238579,0
2025-06-04T19:30:25.876529,10.208876,0.234632,-2.236184,0
2025-06-04T19:30:25.876529,10.201694,0.234632,-2.219425,0
2025-06-04T19:30:25.876529,10.201694,0.241814,-2.212242,0
2025-06-04T19:30:25.876529,10.21127,0.227449,-2.217031,0
2025-06-04T19:30:25.876529,10.208876,0.241814,-2.20506,0
2025-06-04T19:30:25.876529,10.199299,0.21069,-2.219425,0
2025-06-04T19:30:25.876529,10.213664,0.234632,-2.217031,0
2025-06-04T19:30:25.876529,10.204087,0.215478,-2.226608,0
2025-06-04T19:30:25.876529,10.21127,0.23942,-2.229002,0
2025-06-04T19:30:25.876529,10.21127,0.244209,-2.231396,0
2025-06-04T19:30:25.884135,10.235212,0.23942,-2.236184,0
2025-06-04T19:30:25.884135,10.216059,0.23942,-2.267309,0
2025-06-04T19:30:25.884135,10.208876,0.225055,-2.243367,0
2025-06-04T19:30:25.884135,10.208876,0.232238,-2.229002,0
2025-06-04T19:30:25.884135,10.216059,0.227449,-2.238579,0
2025-06-04T19:30:25.884135,10.230424,0.241814,-2.257732,0
2025-06-04T19:30:25.884135,10.208876,0.246603,-2.200271,0
2025-06-04T19:30:25.884135,10.206482,0.246603,-2.217031,0
2025-06-04T19:30:25.884135,10.213664,0.251391,-2.221819,0
2025-06-04T19:30:25.884135,10.223241,0.244209,-2.260126,0
2025-06-04T19:30:25.884135,10.216059,0.244209,-2.229002,0
2025-06-04T19:30:25.884135,10.216059,0.237026,-2.226608,0
2025-06-04T19:30:25.884135,10.206482,0.241814,-2.226608,0
2025-06-04T19:30:25.890946,10.206482,0.229843,-2.226608,0
2025-06-04T19:30:25.890946,10.206482,0.227449,-2.224213,0
2025-06-04T19:30:25.891958,10.220847,0.244209,-2.257732,0
2025-06-04T19:30:25.891958,10.201694,0.237026,-2.274492,0
2025-06-04T19:30:25.891958,10.201694,0.227449,-2.219425,0
2025-06-04T19:30:25.891958,10.204087,0.237026,-2.252944,0
2025-06-04T19:30:25.891958,10.206482,0.237026,-2.243367,0
2025-06-04T19:30:25.891958,10.206482,0.23942,-2.243367,0
2025-06-04T19:30:25.891958,10.189722,0.244209,-2.209848,0
2025-06-04T19:30:25.891958,10.206482,0.229843,-2.20506,0
2025-06-04T19:30:25.891958,10.204087,0.227449,-2.245761,0
2025-06-04T19:30:25.891958,10.199299,0.234632,-2.243367,0
2025-06-04T19:30:25.891958,10.218452,0.222661,-2.269703,0
2025-06-04T19:30:25.891958,10.218452,0.229843,-2.212242,0
2025-06-04T19:30:25.900178,10.216059,0.241814,-2.209848,0
2025-06-04T19:30:25.900178,10.199299,0.244209,-2.248155,0
2025-06-04T19:30:25.902452,10.220847,0.248997,-2.25055,0
2025-06-04T19:30:25.902452,10.206482,0.225055,-2.231396,0
2025-06-04T19:30:25.902452,10.223241,0.244209,-2.224213,0
2025-06-04T19:30:25.904636,10.206482,0.234632,-2.231396,0
2025-06-04T19:30:25.904636,10.220847,0.220267,-2.243367,0
2025-06-04T19:30:25.904636,10.206482,0.241814,-2.23379,0
2025-06-04T19:30:25.904636,10.196905,0.253785,-2.238579,0
2025-06-04T19:30:25.904636,10.204087,0.220267,-2.229002,0
2025-06-04T19:30:25.904636,10.21127,0.248997,-2.248155,0
2025-06-04T19:30:25.908301,10.213664,0.232238,-2.226608,0
2025-06-04T19:30:25.908301,10.21127,0.253785,-2.260126,0
2025-06-04T19:30:25.908301,10.220847,0.246603,-2.229002,0
2025-06-04T19:30:25.908301,10.199299,0.237026,-2.238579,0
2025-06-04T19:30:25.908301,10.201694,0.248997,-2.243367,0
2025-06-04T19:30:25.908301,10.21127,0.21069,-2.236184,0
2025-06-04T19:30:25.908301,10.19451,0.222661,-2.224213,0
2025-06-04T19:30:25.908301,10.206482,0.232238,-2.25055,0
2025-06-04T19:30:25.908301,10.213664,0.253785,-2.224213,0
2025-06-04T19:30:25.908301,10.225636,0.241814,-2.243367,0
2025-06-04T19:30:25.908301,10.206482,0.251391,-2.23379,0
2025-06-04T19:30:25.908301,10.213664,0.244209,-2.23379,0
2025-06-04T19:30:25.908301,10.19451,0.25618,-2.262521,0
2025-06-04T19:30:25.908301,10.201694,0.229843,-2.240973,0
2025-06-04T19:30:25.908301,10.223241,0.225055,-2.23379,0
2025-06-04T19:30:25.916701,10.208876,0.220267,-2.240973,1
2025-06-04T19:30:25.916701,10.206482,0.220267,-2.231396,0
2025-06-04T19:30:28.401158,10.196905,0.234632,-2.226608,0
2025-06-04T19:30:28.401158,10.199299,0.251391,-2.245761,0
2025-06-04T19:30:28.401158,10.216059,0.241814,-2.226608,0
2025-06-04T19:30:28.401158,10.19451,0.234632,-2.243367,0
2025-06-04T19:30:28.401158,10.189722,0.244209,-2.226608,0
2025-06-04T19:30:28.401158,10.21127,0.241814,-2.212242,0
2025-06-04T19:30:28.401158,10.232818,0.227449,-2.23379,0
2025-06-04T19:30:28.401158,10.187328,0.234632,-2.209848,0
2025-06-04T19:30:28.401158,10.204087,0.237026,-2.214637,0
2025-06-04T19:30:28.401158,10.201694,0.227449,-2.260126,0
2025-06-04T19:30:28.401158,10.19451,0.232238,-2.226608,0
2025-06-04T19:30:28.401158,10.189722,0.23942,-2.255338,0
2025-06-04T19:30:28.401158,10.204087,0.232238,-2.245761,0
2025-06-04T19:30:28.408687,10.218452,0.229843,-2.25055,0
2025-06-04T19:30:28.409097,10.220847,0.23942,-2.262521,0
2025-06-04T19:30:28.409097,10.208876,0.246603,-2.212242,0
2025-06-04T19:30:28.409097,10.213664,0.241814,-2.252944,0
2025-06-04T19:30:28.409097,10.225636,0.241814,-2.236184,0
2025-06-04T19:30:28.409097,10.208876,0.241814,-2.217031,0
2025-06-04T19:30:28.409097,10.21127,0.246603,-2.231396,0
2025-06-04T19:30:28.409097,10.213664,0.213084,-2.252944,0
2025-06-04T19:30:28.409097,10.240001,0.251391,-2.248155,0
2025-06-04T19:30:28.409097,10.21127,0.229843,-2.217031,0
2025-06-04T19:30:28.409097,10.208876,0.248997,-2.248155,0
2025-06-04T19:30:28.409097,10.21127,0.237026,-2.262521,0
2025-06-04T19:30:28.409097,10.213664,0.23942,-2.243367,0
2025-06-04T19:30:28.409097,10.206482,0.23942,-2.217031,0
2025-06-04T19:30:28.409097,10.208876,0.225055,-2.219425,0
2025-06-04T19:30:28.416826,10.218452,0.232238,-2.236184,0
2025-06-04T19:30:28.416826,10.21127,0.234632,-2.202666,0
2025-06-04T19:30:28.416826,10.208876,0.246603,-2.248155,0
2025-06-04T19:30:28.416826,10.213664,0.23942,-2.20506,0
2025-06-04T19:30:28.416826,10.213664,0.225055,-2.231396,0
2025-06-04T19:30:28.416826,10.204087,0.232238,-2.226608,0
2025-06-04T19:30:28.416826,10.206482,0.251391,-2.243367,0
2025-06-04T19:30:28.416826,10.204087,0.225055,-2.23379,0
2025-06-04T19:30:28.416826,10.225636,0.234632,-2.269703,0
2025-06-04T19:30:28.425308,10.204087,0.229843,-2.231396,0
2025-06-04T19:30:28.425308,10.206482,0.229843,-2.20506,0
2025-06-04T19:30:28.425308,10.216059,0.234632,-2.229002,0
2025-06-04T19:30:28.425308,10.216059,0.23942,-2.23379,0
2025-06-04T19:30:28.425308,10.199299,0.241814,-2.23379,0
2025-06-04T19:30:28.425308,10.21127,0.237026,-2.229002,0
2025-06-04T19:30:28.425308,10.199299,0.227449,-2.224213,0
2025-06-04T19:30:28.425308,10.216059,0.217872,-2.248155,0
2025-06-04T19:30:28.425308,10.192117,0.234632,-2.23379,0
2025-06-04T19:30:28.425308,10.208876,0.215478,-2.240973,0
2025-06-04T19:30:28.425308,10.216059,0.246603,-2.224213,0
2025-06-04T19:30:28.425308,10.206482,0.232238,-2.214637,0
2025-06-04T19:30:28.425308,10.230424,0.23942,-2.221819,0
2025-06-04T19:30:28.425308,10.213664,0.217872,-2.221819,0
2025-06-04T19:30:28.425308,10.223241,0.246603,-2.248155,0
2025-06-04T19:30:28.433673,10.199299,0.225055,-2.25055,0
2025-06-04T19:30:28.433673,10.201694,0.244209,-2.229002,0
2025-06-04T19:30:28.433673,10.208876,0.227449,-2.209848,0
2025-06-04T19:30:28.433673,10.208876,0.251391,-2.238579,0
2025-06-04T19:30:28.433673,10.199299,0.232238,-2.221819,0
2025-06-04T19:30:28.433673,10.208876,0.23942,-2.231396,0
2025-06-04T19:30:28.433673,10.201694,0.234632,-2.226608,0
2025-06-04T19:30:28.433673,10.216059,0.237026,-2.255338,0
2025-06-04T19:30:28.433673,10.206482,0.237026,-2.248155,0
2025-06-04T19:30:28.433673,10.232818,0.234632,-2.219425,0
2025-06-04T19:30:28.433673,10.206482,0.234632,-2.25055,0
2025-06-04T19:30:28.433673,10.21127,0.220267,-2.240973,0
2025-06-04T19:30:28.433673,10.199299,0.234632,-2.212242,0
2025-06-04T19:30:28.441957,10.196905,0.23942,-2.226608,0
2025-06-04T19:30:28.441957,10.208876,0.227449,-2.243367,0
2025-06-04T19:30:28.441957,10.213664,0.241814,-2.245761,0
2025-06-04T19:30:28.441957,10.199299,0.244209,-2.252944,0
2025-06-04T19:30:28.441957,10.196905,0.248997,-2.255338,0
2025-06-04T19:30:28.441957,10.225636,0.229843,-2.214637,0
2025-06-04T19:30:28.441957,10.232818,0.244209,-2.219425,0
2025-06-04T19:30:28.441957,10.220847,0.241814,-2.23379,0
2025-06-04T19:30:28.441957,10.206482,0.229843,-2.25055,0
2025-06-04T19:30:28.441957,10.213664,0.23942,-2.23379,0
2025-06-04T19:30:28.441957,10.216059,0.241814,-2.240973,0
2025-06-04T19:30:28.441957,10.21127,0.25618,-2.229002,0
2025-06-04T19:30:28.441957,10.199299,0.241814,-2.214637,0
2025-06-04T19:30:28.441957,10.218452,0.232238,-2.257732,0
2025-06-04T19:30:28.441957,10.21127,0.241814,-2.248155,0
2025-06-04T19:30:28.441957,10.184934,0.23942,-2.226608,0
2025-06-04T19:30:28.441957,10.199299,0.229843,-2.243367,0
2025-06-04T19:30:28.441957,10.208876,0.229843,-2.262521,0
2025-06-04T19:30:28.450300,10.216059,0.253785,-2.25055,0
2025-06-04T19:30:28.450300,10.220847,0.241814,-2.231396,0
2025-06-04T19:30:28.450300,10.208876,0.244209,-2.202666,0
2025-06-04T19:30:28.450300,10.206482,0.23942,-2.224213,0
2025-06-04T19:30:28.450300,10.204087,0.222661,-2.207454,0
2025-06-04T19:30:28.450300,10.220847,0.213084,-2.272097,0
2025-06-04T19:30:28.450300,10.213664,0.229843,-2.221819,0
2025-06-04T19:30:28.450300,10.204087,0.23942,-2.25055,0
2025-06-04T19:30:28.450300,10.223241,0.234632,-2.236184,0
2025-06-04T19:30:28.450300,10.208876,0.229843,-2.243367,0
2025-06-04T19:30:28.450300,10.199299,0.227449,-2.238579,0
2025-06-04T19:30:28.450300,10.204087,0.220267,-2.240973,0
2025-06-04T19:30:28.450300,10.228029,0.229843,-2.219425,0
2025-06-04T19:30:28.450300,10.220847,0.241814,-2.221819,0
2025-06-04T19:30:28.450300,10.206482,0.232238,-2.245761,0
2025-06-04T19:30:28.458191,10.199299,0.23942,-2.260126,0
2025-06-04T19:30:28.458191,10.196905,0.232238,-2.209848,0
2025-06-04T19:30:28.458191,10.228029,0.227449,-2.252944,0
2025-06-04T19:30:28.458191,10.225636,0.244209,-2.238579,0
2025-06-04T19:30:28.458191,10.21127,0.225055,-2.231396,0
2025-06-04T19:30:28.458191,10.208876,0.217872,-2.226608,0
2025-06-04T19:30:28.458191,10.216059,0.23942,-2.236184,0
2025-06-04T19:30:28.458191,10.19451,0.25618,-2.264915,0
2025-06-04T19:30:28.458191,10.21127,0.229843,-2.229002,0
2025-06-04T19:30:28.458191,10.201694,0.229843,-2.23379,0
2025-06-04T19:30:28.458191,10.184934,0.253785,-2.231396,2
2025-06-04T19:30:28.458191,10.220847,0.232238,-2.25055,0
2025-06-04T19:30:30.592505,10.192117,0.229843,-2.214637,0
2025-06-04T19:30:30.592505,10.19451,0.227449,-2.207454,0
2025-06-04T19:30:30.592505,10.199299,0.237026,-2.231396,0
2025-06-04T19:30:30.592505,10.206482,0.244209,-2.238579,0
2025-06-04T19:30:30.592505,10.192117,0.227449,-2.221819,0
2025-06-04T19:30:30.592505,10.237606,0.244209,-2.236184,0
2025-06-04T19:30:30.592505,10.189722,0.246603,-2.209848,0
2025-06-04T19:30:30.592505,10.216059,0.227449,-2.200271,0
2025-06-04T19:30:30.592505,10.218452,0.227449,-2.209848,0
2025-06-04T19:30:30.592505,10.216059,0.248997,-2.221819,0
2025-06-04T19:30:30.599665,10.18254,0.253785,-2.245761,0
2025-06-04T19:30:30.600686,10.204087,0.253785,-2.224213,0
2025-06-04T19:30:30.601807,10.21127,0.227449,-2.255338,0
2025-06-04T19:30:30.601807,10.21127,0.220267,-2.255338,0
2025-06-04T19:30:30.601807,10.228029,0.237026,-2.229002,0
2025-06-04T19:30:30.601807,10.220847,0.23942,-2.240973,0
2025-06-04T19:30:30.601807,10.213664,0.225055,-2.23379,0
2025-06-04T19:30:30.601807,10.21127,0.244209,-2.245761,0
2025-06-04T19:30:30.601807,10.201694,0.232238,-2.224213,0
2025-06-04T19:30:30.601807,10.204087,0.237026,-2.23379,0
2025-06-04T19:30:30.601807,10.208876,0.248997,-2.212242,0
2025-06-04T19:30:30.601807,10.206482,0.251391,-2.195483,0
2025-06-04T19:30:30.601807,10.216059,0.244209,-2.248155,0
2025-06-04T19:30:30.607791,10.216059,0.244209,-2.252944,0
2025-06-04T19:30:30.607791,10.216059,0.232238,-2.248155,0
2025-06-04T19:30:30.608878,10.206482,0.225055,-2.23379,0
2025-06-04T19:30:30.608878,10.208876,0.241814,-2.226608,0
2025-06-04T19:30:30.608878,10.220847,0.237026,-2.252944,0
2025-06-04T19:30:30.608878,10.201694,0.234632,-2.224213,0
2025-06-04T19:30:30.608878,10.216059,0.246603,-2.219425,0
2025-06-04T19:30:30.608878,10.196905,0.232238,-2.23379,0
2025-06-04T19:30:30.608878,10.199299,0.232238,-2.226608,0
2025-06-04T19:30:30.608878,10.21127,0.229843,-2.217031,0
2025-06-04T19:30:30.616000,10.216059,0.244209,-2.243367,0
2025-06-04T19:30:30.616000,10.220847,0.237026,-2.243367,0
2025-06-04T19:30:30.616000,10.201694,0.246603,-2.238579,0
2025-06-04T19:30:30.616000,10.192117,0.225055,-2.245761,0
2025-06-04T19:30:30.616000,10.201694,0.234632,-2.238579,0
2025-06-04T19:30:30.616000,10.218452,0.225055,-2.236184,0
2025-06-04T19:30:30.616000,10.199299,0.244209,-2.245761,0
2025-06-04T19:30:30.616000,10.19451,0.246603,-2.238579,0
2025-06-04T19:30:30.616000,10.21127,0.246603,-2.219425,0
2025-06-04T19:30:30.616000,10.213664,0.23942,-2.229002,0
2025-06-04T19:30:30.616000,10.19451,0.229843,-2.217031,0
2025-06-04T19:30:30.616000,10.218452,0.234632,-2.236184,0
2025-06-04T19:30:30.616000,10.21127,0.198719,-2.212242,0
2025-06-04T19:30:30.616000,10.196905,0.244209,-2.243367,0
2025-06-04T19:30:30.616000,10.216059,0.232238,-2.214637,0
2025-06-04T19:30:30.616000,10.218452,0.217872,-2.264915,0
2025-06-04T19:30:30.616000,10.201694,0.229843,-2.240973,0
2025-06-04T19:30:30.616000,10.208876,0.217872,-2.231396,0
2025-06-04T19:30:30.624436,10.220847,0.225055,-2.20506,0
2025-06-04T19:30:30.624436,10.216059,0.244209,-2.209848,0
2025-06-04T19:30:30.624436,10.201694,0.23942,-2.238579,0
2025-06-04T19:30:30.624436,10.201694,0.241814,-2.236184,0
2025-06-04T19:30:30.624436,10.196905,0.23942,-2.226608,0
2025-06-04T19:30:30.624436,10.218452,0.246603,-2.23379,0
2025-06-04T19:30:30.624436,10.204087,0.232238,-2.212242,0
2025-06-04T19:30:30.624436,10.213664,0.244209,-2.221819,0
2025-06-04T19:30:30.624436,10.21127,0.220267,-2.25055,0
2025-06-04T19:30:30.624436,10.201694,0.220267,-2.226608,0
2025-06-04T19:30:30.624436,10.208876,0.227449,-2.240973,0
2025-06-04T19:30:30.629051,10.201694,0.246603,-2.248155,0
2025-06-04T19:30:30.629051,10.218452,0.244209,-2.252944,0
2025-06-04T19:30:30.629051,10.218452,0.234632,-2.243367,0
2025-06-04T19:30:30.629051,10.232818,0.225055,-2.219425,0
2025-06-04T19:30:30.629051,10.218452,0.237026,-2.226608,0
2025-06-04T19:30:30.629051,10.208876,0.227449,-2.226608,0
2025-06-04T19:30:30.629051,10.208876,0.215478,-2.212242,0
2025-06-04T19:30:30.632774,10.208876,0.237026,-2.23379,0
2025-06-04T19:30:30.632774,10.216059,0.213084,-2.209848,0
2025-06-04T19:30:30.632774,10.199299,0.23942,-2.221819,0
2025-06-04T19:30:30.632774,10.213664,0.251391,-2.219425,0
2025-06-04T19:30:30.632774,10.199299,0.232238,-2.229002,0
2025-06-04T19:30:30.632774,10.19451,0.248997,-2.229002,0
2025-06-04T19:30:30.632774,10.204087,0.217872,-2.197877,0
2025-06-04T19:30:30.632774,10.21127,0.253785,-2.240973,0
2025-06-04T19:30:30.632774,10.19451,0.237026,-2.236184,0
2025-06-04T19:30:30.632774,10.21127,0.232238,-2.25055,0
2025-06-04T19:30:30.632774,10.206482,0.222661,-2.23379,0
2025-06-04T19:30:30.632774,10.213664,0.234632,-2.212242,0
2025-06-04T19:30:30.632774,10.216059,0.220267,-2.221819,0
2025-06-04T19:30:30.632774,10.204087,0.227449,-2.236184,0
2025-06-04T19:30:30.632774,10.218452,0.237026,-2.224213,0
2025-06-04T19:30:30.632774,10.220847,0.244209,-2.240973,0
2025-06-04T19:30:30.640885,10.208876,0.237026,-2.243367,0
2025-06-04T19:30:30.640885,10.220847,0.229843,-2.217031,0
2025-06-04T19:30:30.642030,10.235212,0.232238,-2.224213,0
2025-06-04T19:30:30.642030,10.213664,0.21069,-2.224213,0
2025-06-04T19:30:30.642030,10.19451,0.234632,-2.219425,0
2025-06-04T19:30:30.642030,10.220847,0.234632,-2.231396,0
2025-06-04T19:30:30.642030,10.213664,0.225055,-2.255338,0
2025-06-04T19:30:30.642030,10.232818,0.25618,-2.243367,0
2025-06-04T19:30:30.642030,10.235212,0.251391,-2.240973,1
2025-06-04T19:30:30.642030,10.189722,0.225055,-2.217031,0
2025-06-04T19:30:34.300885,10.220847,0.251391,-2.236184,0
2025-06-04T19:30:34.300885,10.208876,0.244209,-2.219425,0
2025-06-04T19:30:34.300885,10.218452,0.217872,-2.217031,0
2025-06-04T19:30:34.300885,10.208876,0.229843,-2.181118,0
2025-06-04T19:30:34.300885,10.213664,0.227449,-2.257732,0
2025-06-04T19:30:34.300885,10.216059,0.225055,-2.219425,0
2025-06-04T19:30:34.300885,10.213664,0.217872,-2.217031,0
2025-06-04T19:30:34.300885,10.204087,0.232238,-2.23379,0
2025-06-04T19:30:34.300885,10.225636,0.237026,-2.219425,0
2025-06-04T19:30:34.300885,10.19451,0.246603,-2.226608,0
2025-06-04T19:30:34.308490,10.196905,0.227449,-2.236184,0
2025-06-04T19:30:34.309272,10.18254,0.222661,-2.209848,0
2025-06-04T19:30:34.309272,10.199299,0.244209,-2.219425,0
2025-06-04T19:30:34.309272,10.218452,0.23942,-2.231396,0
2025-06-04T19:30:34.309272,10.201694,0.229843,-2.238579,0
2025-06-04T19:30:34.309272,10.230424,0.215478,-2.207454,0
2025-06-04T19:30:34.309272,10.204087,0.222661,-2.240973,0
2025-06-04T19:30:34.309272,10.223241,0.232238,-2.240973,0
2025-06-04T19:30:34.309272,10.216059,0.232238,-2.248155,0
2025-06-04T19:30:34.317525,10.213664,0.234632,-2.25055,0
2025-06-04T19:30:34.317525,10.206482,0.234632,-2.25055,0
2025-06-04T19:30:34.317525,10.201694,0.248997,-2.236184,0
2025-06-04T19:30:34.317525,10.204087,0.227449,-2.231396,0
2025-06-04T19:30:34.317525,10.206482,0.244209,-2.229002,0
2025-06-04T19:30:34.317525,10.196905,0.225055,-2.243367,0
2025-06-04T19:30:34.317525,10.206482,0.227449,-2.25055,0
2025-06-04T19:30:34.317525,10.216059,0.217872,-2.248155,0
2025-06-04T19:30:34.317525,10.196905,0.244209,-2.245761,0
2025-06-04T19:30:34.317525,10.213664,0.225055,-2.221819,0
2025-06-04T19:30:34.317525,10.208876,0.225055,-2.224213,0
2025-06-04T19:30:34.324922,10.199299,0.217872,-2.224213,0
2025-06-04T19:30:34.324922,10.21127,0.23942,-2.231396,0
2025-06-04T19:30:34.324922,10.208876,0.237026,-2.221819,0
2025-06-04T19:30:34.324922,10.232818,0.244209,-2.212242,0
2025-06-04T19:30:34.324922,10.208876,0.227449,-2.212242,0
2025-06-04T19:30:34.324922,10.21127,0.227449,-2.212242,0
2025-06-04T19:30:34.324922,10.216059,0.227449,-2.224213,0
2025-06-04T19:30:34.324922,10.213664,0.23942,-2.243367,0
2025-06-04T19:30:34.324922,10.213664,0.241814,-2.212242,0
2025-06-04T19:30:34.324922,10.21127,0.23942,-2.231396,0
2025-06-04T19:30:34.324922,10.216059,0.234632,-2.238579,0
2025-06-04T19:30:34.324922,10.208876,0.241814,-2.226608,0
2025-06-04T19:30:34.324922,10.196905,0.208296,-2.224213,0
2025-06-04T19:30:34.324922,10.208876,0.225055,-2.262521,0
2025-06-04T19:30:34.333276,10.220847,0.229843,-2.224213,0
2025-06-04T19:30:34.333611,10.208876,0.237026,-2.23379,0
2025-06-04T19:30:34.333611,10.220847,0.237026,-2.238579,0
2025-06-04T19:30:34.333611,10.213664,0.246603,-2.245761,0
2025-06-04T19:30:34.333611,10.19451,0.229843,-2.219425,0
2025-06-04T19:30:34.333611,10.18254,0.213084,-2.207454,0
2025-06-04T19:30:34.333611,10.187328,0.23942,-2.236184,0
2025-06-04T19:30:34.333611,10.223241,0.229843,-2.229002,0
2025-06-04T19:30:34.333611,10.218452,0.225055,-2.23379,0
2025-06-04T19:30:34.333611,10.220847,0.241814,-2.238579,0
2025-06-04T19:30:34.333611,10.206482,0.225055,-2.219425,0
2025-06-04T19:30:34.333611,10.220847,0.222661,-2.23379,0
2025-06-04T19:30:34.333611,10.216059,0.213084,-2.248155,0
2025-06-04T19:30:34.333611,10.204087,0.225055,-2.217031,0
2025-06-04T19:30:34.333611,10.220847,0.222661,-2.231396,0
2025-06-04T19:30:34.333611,10.206482,0.237026,-2.217031,0
2025-06-04T19:30:34.341507,10.206482,0.246603,-2.221819,0
2025-06-04T19:30:34.342245,10.21127,0.229843,-2.245761,0
2025-06-04T19:30:34.342245,10.204087,0.234632,-2.221819,0
2025-06-04T19:30:34.342245,10.206482,0.244209,-2.245761,0
2025-06-04T19:30:34.342245,10.21127,0.234632,-2.209848,0
2025-06-04T19:30:34.342245,10.220847,0.232238,-2.243367,0
2025-06-04T19:30:34.342245,10.225636,0.227449,-2.248155,0
2025-06-04T19:30:34.342245,10.196905,0.237026,-2.20506,0
2025-06-04T19:30:34.342245,10.21127,0.203507,-2.236184,0
2025-06-04T19:30:34.342245,10.213664,0.244209,-2.255338,0
2025-06-04T19:30:34.342245,10.21127,0.227449,-2.252944,0
2025-06-04T19:30:34.342245,10.196905,0.234632,-2.240973,0
2025-06-04T19:30:34.342245,10.223241,0.225055,-2.23379,0
2025-06-04T19:30:34.342245,10.208876,0.246603,-2.248155,0
2025-06-04T19:30:34.342245,10.216059,0.232238,-2.224213,0
2025-06-04T19:30:34.342245,10.204087,0.232238,-2.214637,0
2025-06-04T19:30:34.349724,10.218452,0.234632,-2.212242,0
2025-06-04T19:30:34.350461,10.218452,0.244209,-2.221819,0
2025-06-04T19:30:34.350461,10.175357,0.222661,-2.214637,0
2025-06-04T19:30:34.350461,10.21127,0.232238,-2.224213,0
2025-06-04T19:30:34.350461,10.220847,0.248997,-2.214637,0
2025-06-04T19:30:34.350461,10.204087,0.244209,-2.202666,0
2025-06-04T19:30:34.350461,10.19451,0.213084,-2.217031,0
2025-06-04T19:30:34.350461,10.218452,0.232238,-2.221819,0
2025-06-04T19:30:34.350461,10.208876,0.244209,-2.226608,0
2025-06-04T19:30:34.353942,10.232818,0.232238,-2.240973,0
2025-06-04T19:30:34.353942,10.196905,0.246603,-2.23379,0
2025-06-04T19:30:34.353942,10.208876,0.23942,-2.23379,0
2025-06-04T19:30:34.353942,10.208876,0.227449,-2.257732,0
2025-06-04T19:30:34.353942,10.192117,0.244209,-2.221819,0
2025-06-04T19:30:34.355946,10.206482,0.234632,-2.20506,0
2025-06-04T19:30:34.355946,10.208876,0.248997,-2.217031,0
2025-06-04T19:30:34.355946,10.218452,0.251391,-2.23379,0
2025-06-04T19:30:34.355946,10.201694,0.232238,-2.209848,0
2025-06-04T19:30:34.355946,10.213664,0.244209,-2.229002,0
2025-06-04T19:30:34.357949,10.21127,0.234632,-2.214637,0
2025-06-04T19:30:34.357949,10.213664,0.215478,-2.217031,0
2025-06-04T19:30:34.357949,10.206482,0.225055,-2.240973,0
2025-06-04T19:30:34.357949,10.204087,0.237026,-2.252944,0
2025-06-04T19:30:34.357949,10.213664,0.225055,-2.248155,0
2025-06-04T19:30:34.357949,10.206482,0.227449,-2.236184,0
2025-06-04T19:30:34.357949,10.192117,0.246603,-2.219425,0
2025-06-04T19:30:34.357949,10.19451,0.215478,-2.212242,0
2025-06-04T19:30:34.357949,10.196905,0.217872,-2.238579,0
2025-06-04T19:30:34.357949,10.196905,0.246603,-2.240973,0
2025-06-04T19:30:34.357949,10.216059,0.229843,-2.229002,0
2025-06-04T19:30:34.357949,10.216059,0.225055,-2.195483,0
2025-06-04T19:30:34.357949,10.208876,0.232238,-2.219425,0
2025-06-04T19:30:34.357949,10.213664,0.227449,-2.248155,0
2025-06-04T19:30:34.357949,10.206482,0.229843,-2.260126,0
2025-06-04T19:30:34.357949,10.21127,0.248997,-2.243367,0
2025-06-04T19:30:34.357949,10.201694,0.244209,-2.202666,0
2025-06-04T19:30:34.366137,10.208876,0.227449,-2.23379,0
2025-06-04T19:30:34.366137,10.208876,0.229843,-2.219425,0
2025-06-04T19:30:34.366137,10.218452,0.23942,-2.217031,0
2025-06-04T19:30:34.366137,10.21127,0.232238,-2.209848,0
2025-06-04T19:30:34.366137,10.235212,0.232238,-2.229002,0
2025-06-04T19:30:34.366137,10.206482,0.227449,-2.245761,0
2025-06-04T19:30:34.366137,10.206482,0.23942,-2.236184,0
2025-06-04T19:30:34.366137,10.220847,0.244209,-2.260126,0
2025-06-04T19:30:34.366137,10.21127,0.246603,-2.248155,0
2025-06-04T19:30:34.366137,10.218452,0.229843,-2.264915,0
2025-06-04T19:30:34.366137,10.216059,0.222661,-2.229002,0
2025-06-04T19:30:34.366137,10.223241,0.227449,-2.236184,0
2025-06-04T19:30:34.371938,10.196905,0.229843,-2.202666,0
2025-06-04T19:30:34.371938,10.201694,0.232238,-2.214637,0
2025-06-04T19:30:34.371938,10.175357,0.25618,-2.236184,0
2025-06-04T19:30:34.371938,10.223241,0.220267,-2.231396,0
2025-06-04T19:30:34.371938,10.218452,0.215478,-2.197877,0
2025-06-04T19:30:34.374402,10.220847,0.237026,-2.240973,0
2025-06-04T19:30:34.374402,10.213664,0.251391,-2.221819,0
2025-06-04T19:30:34.375509,10.206482,0.232238,-2.248155,0
2025-06-04T19:30:34.375509,10.220847,0.246603,-2.243367,0
2025-06-04T19:30:34.375509,10.216059,0.237026,-2.229002,0
2025-06-04T19:30:34.375509,10.208876,0.234632,-2.236184,0
2025-06-04T19:30:34.375509,10.216059,0.225055,-2.219425,0
2025-06-04T19:30:34.375509,10.206482,0.232238,-2.214637,0
2025-06-04T19:30:34.375509,10.206482,0.220267,-2.221819,0
2025-06-04T19:30:34.375509,10.206482,0.234632,-2.224213,0
2025-06-04T19:30:34.375509,10.184934,0.244209,-2.229002,0
2025-06-04T19:30:34.375509,10.208876,0.251391,-2.224213,0
2025-06-04T19:30:34.375509,10.199299,0.232238,-2.23379,0
2025-06-04T19:30:34.375509,10.213664,0.244209,-2.221819,0
2025-06-04T19:30:34.375509,10.223241,0.229843,-2.226608,0
2025-06-04T19:30:34.375509,10.21127,0.244209,-2.221819,0
2025-06-04T19:30:34.375509,10.204087,0.232238,-2.219425,0
2025-06-04T19:30:34.375509,10.228029,0.234632,-2.219425,0
2025-06-04T19:30:34.382800,10.223241,0.23942,-2.23379,0
2025-06-04T19:30:34.382800,10.21127,0.241814,-2.219425,0
2025-06-04T19:30:34.382800,10.192117,0.253785,-2.20506,0
2025-06-04T19:30:34.383863,10.199299,0.248997,-2.231396,0
2025-06-04T19:30:34.383863,10.204087,0.227449,-2.224213,0
2025-06-04T19:30:34.383863,10.21127,0.234632,-2.231396,0
2025-06-04T19:30:34.383863,10.199299,0.225055,-2.221819,0
2025-06-04T19:30:34.385805,10.220847,0.232238,-2.209848,0
2025-06-04T19:30:34.385805,10.228029,0.234632,-2.226608,0
2025-06-04T19:30:34.385805,10.232818,0.222661,-2.231396,0
2025-06-04T19:30:34.385805,10.206482,0.246603,-2.231396,0
2025-06-04T19:30:34.387810,10.213664,0.237026,-2.238579,0
2025-06-04T19:30:34.388953,10.199299,0.237026,-2.231396,2
2025-06-04T19:30:34.388953,10.213664,0.25618,-2.248155,0
2025-06-04T19:30:34.388953,10.21127,0.237026,-2.25055,0
2025-06-04T19:30:34.388953,10.204087,0.244209,-2.23379,0
2025-06-04T19:30:37.109242,10.225636,0.229843,-2.236184,0
2025-06-04T19:30:37.109242,10.199299,0.244209,-2.226608,0
2025-06-04T19:30:37.109242,10.228029,0.220267,-2.212242,0
2025-06-04T19:30:37.109242,10.21127,0.220267,-2.238579,0
2025-06-04T19:30:37.109242,10.220847,0.244209,-2.231396,0
2025-06-04T19:30:37.109242,10.223241,0.229843,-2.217031,0
2025-06-04T19:30:37.109242,10.204087,0.237026,-2.229002,0
2025-06-04T19:30:37.109242,10.204087,0.220267,-2.245761,0
2025-06-04T19:30:37.117005,10.228029,0.246603,-2.219425,0
2025-06-04T19:30:37.117321,10.201694,0.234632,-2.212242,0
2025-06-04T19:30:37.117321,10.223241,0.232238,-2.207454,0
2025-06-04T19:30:37.117321,10.19451,0.227449,-2.224213,0
2025-06-04T19:30:37.117321,10.206482,0.229843,-2.221819,0
2025-06-04T19:30:37.117321,10.228029,0.244209,-2.217031,0
2025-06-04T19:30:37.117321,10.228029,0.229843,-2.245761,0
2025-06-04T19:30:37.117321,10.21127,0.225055,-2.229002,0
2025-06-04T19:30:37.117321,10.206482,0.237026,-2.221819,0
2025-06-04T19:30:37.117321,10.196905,0.25618,-2.23379,0
2025-06-04T19:30:37.117321,10.21127,0.227449,-2.202666,0
2025-06-04T19:30:37.117321,10.206482,0.237026,-2.229002,0
2025-06-04T19:30:37.117321,10.204087,0.234632,-2.217031,0
2025-06-04T19:30:37.117321,10.232818,0.208296,-2.257732,0
2025-06-04T19:30:37.117321,10.216059,0.234632,-2.212242,0
2025-06-04T19:30:37.117321,10.206482,0.229843,-2.219425,0
2025-06-04T19:30:37.117321,10.230424,0.227449,-2.240973,0
2025-06-04T19:30:37.125169,10.199299,0.23942,-2.219425,0
2025-06-04T19:30:37.125587,10.220847,0.251391,-2.255338,0
2025-06-04T19:30:37.125587,10.220847,0.244209,-2.262521,0
2025-06-04T19:30:37.125587,10.208876,0.248997,-2.243367,0
2025-06-04T19:30:37.125587,10.208876,0.225055,-2.231396,0
2025-06-04T19:30:37.125587,10.216059,0.246603,-2.260126,0
2025-06-04T19:30:37.125587,10.208876,0.237026,-2.224213,0
2025-06-04T19:30:37.130370,10.21127,0.244209,-2.217031,0
2025-06-04T19:30:37.130370,10.21127,0.23942,-2.217031,0
2025-06-04T19:30:37.130370,10.213664,0.229843,-2.207454,0
2025-06-04T19:30:37.130370,10.216059,0.229843,-2.252944,0
2025-06-04T19:30:37.130370,10.204087,0.246603,-2.221819,0
2025-06-04T19:30:37.130370,10.196905,0.232238,-2.209848,0
2025-06-04T19:30:37.133683,10.206482,0.232238,-2.214637,0
2025-06-04T19:30:37.133683,10.230424,0.227449,-2.226608,0
2025-06-04T19:30:37.133683,10.204087,0.244209,-2.236184,0
2025-06-04T19:30:37.133683,10.208876,0.246603,-2.257732,0
2025-06-04T19:30:37.133683,10.223241,0.234632,-2.23379,0
2025-06-04T19:30:37.133683,10.225636,0.222661,-2.238579,0
2025-06-04T19:30:37.133683,10.235212,0.232238,-2.224213,0
2025-06-04T19:30:37.133683,10.218452,0.248997,-2.217031,0
2025-06-04T19:30:37.133683,10.235212,0.241814,-2.229002,0
2025-06-04T19:30:37.133683,10.204087,0.217872,-2.20506,0
2025-06-04T19:30:37.133683,10.192117,0.220267,-2.224213,0
2025-06-04T19:30:37.141826,10.204087,0.244209,-2.23379,0
2025-06-04T19:30:37.141826,10.21127,0.225055,-2.238579,0
2025-06-04T19:30:37.141826,10.220847,0.232238,-2.231396,0
2025-06-04T19:30:37.141826,10.218452,0.232238,-2.25055,0
2025-06-04T19:30:37.141826,10.208876,0.23942,-2.217031,0
2025-06-04T19:30:37.141826,10.216059,0.225055,-2.231396,0
2025-06-04T19:30:37.141826,10.223241,0.232238,-2.207454,0
2025-06-04T19:30:37.141826,10.21127,0.244209,-2.209848,0
2025-06-04T19:30:37.141826,10.225636,0.23942,-2.240973,0
2025-06-04T19:30:37.141826,10.201694,0.234632,-2.236184,0
2025-06-04T19:30:37.141826,10.204087,0.234632,-2.20506,0
2025-06-04T19:30:37.141826,10.192117,0.23942,-2.23379,0
2025-06-04T19:30:37.141826,10.201694,0.229843,-2.236184,0
2025-06-04T19:30:37.141826,10.225636,0.237026,-2.217031,0
2025-06-04T19:30:37.141826,10.201694,0.251391,-2.209848,0
2025-06-04T19:30:37.150678,10.204087,0.229843,-2.236184,0
2025-06-04T19:30:37.150678,10.199299,0.248997,-2.236184,0
2025-06-04T19:30:37.150678,10.228029,0.220267,-2.23379,0
2025-06-04T19:30:37.150678,10.216059,0.229843,-2.217031,0
2025-06-04T19:30:37.150678,10.21127,0.227449,-2.25055,0
2025-06-04T19:30:37.150678,10.201694,0.232238,-2.245761,0
2025-06-04T19:30:37.150678,10.216059,0.234632,-2.212242,0
2025-06-04T19:30:37.150678,10.208876,0.215478,-2.209848,0
2025-06-04T19:30:37.150678,10.196905,0.25618,-2.23379,0
2025-06-04T19:30:37.150678,10.199299,0.229843,-2.255338,0
2025-06-04T19:30:37.150678,10.204087,0.23942,-2.236184,0
2025-06-04T19:30:37.150678,10.204087,0.227449,-2.243367,0
2025-06-04T19:30:37.150678,10.206482,0.234632,-2.252944,0
2025-06-04T19:30:37.150678,10.228029,0.227449,-2.217031,0
2025-06-04T19:30:37.150678,10.196905,0.232238,-2.260126,0
2025-06-04T19:30:37.150678,10.208876,0.234632,-2.214637,0
2025-06-04T19:30:37.150678,10.199299,0.246603,-2.217031,0
2025-06-04T19:30:37.158540,10.184934,0.23942,-2.219425,0
2025-06-04T19:30:37.158540,10.21127,0.232238,-2.229002,0
2025-06-04T19:30:37.158540,10.208876,0.244209,-2.248155,0
2025-06-04T19:30:37.158540,10.230424,0.234632,-2.226608,0
2025-06-04T19:30:37.158540,10.208876,0.232238,-2.236184,0
2025-06-04T19:30:37.158540,10.213664,0.229843,-2.212242,0
2025-06-04T19:30:37.158540,10.220847,0.225055,-2.25055,0
2025-06-04T19:30:37.158540,10.199299,0.251391,-2.226608,0
2025-06-04T19:30:37.158540,10.204087,0.241814,-2.221819,0
2025-06-04T19:30:37.158540,10.213664,0.220267,-2.207454,0
2025-06-04T19:30:37.158540,10.21127,0.217872,-2.231396,0
2025-06-04T19:30:37.158540,10.201694,0.237026,-2.23379,0
2025-06-04T19:30:37.158540,10.225636,0.220267,-2.221819,0
2025-06-04T19:30:37.158540,10.225636,0.253785,-2.236184,0
2025-06-04T19:30:37.158540,10.199299,0.251391,-2.231396,0
2025-06-04T19:30:37.158540,10.240001,0.241814,-2.226608,0
2025-06-04T19:30:37.158540,10.206482,0.268151,-2.214637,0
2025-06-04T19:30:37.158540,10.230424,0.227449,-2.238579,0
2025-06-04T19:30:37.158540,10.235212,0.23942,-2.229002,0
2025-06-04T19:30:37.158540,10.235212,0.229843,-2.209848,0
2025-06-04T19:30:37.166863,10.220847,0.241814,-2.23379,0
2025-06-04T19:30:37.166863,10.216059,0.244209,-2.23379,0
2025-06-04T19:30:37.166863,10.213664,0.260968,-2.221819,0
2025-06-04T19:30:37.166863,10.225636,0.246603,-2.236184,0
2025-06-04T19:30:37.166863,10.216059,0.225055,-2.229002,0
2025-06-04T19:30:37.166863,10.206482,0.253785,-2.209848,0
2025-06-04T19:30:37.166863,10.204087,0.222661,-2.209848,0
2025-06-04T19:30:37.166863,10.204087,0.227449,-2.23379,0
2025-06-04T19:30:37.166863,10.213664,0.227449,-2.212242,0
2025-06-04T19:30:37.166863,10.21127,0.229843,-2.236184,0
2025-06-04T19:30:37.166863,10.228029,0.246603,-2.236184,0
2025-06-04T19:30:37.166863,10.204087,0.213084,-2.212242,0
2025-06-04T19:30:37.166863,10.213664,0.23942,-2.214637,0
2025-06-04T19:30:37.166863,10.216059,0.23942,-2.221819,0
2025-06-04T19:30:37.166863,10.19451,0.227449,-2.262521,0
2025-06-04T19:30:37.166863,10.223241,0.241814,-2.240973,0
2025-06-04T19:30:37.174994,10.201694,0.244209,-2.221819,0
2025-06-04T19:30:37.174994,10.208876,0.241814,-2.202666,0
2025-06-04T19:30:37.174994,10.19451,0.237026,-2.243367,1
2025-06-04T19:30:37.174994,10.192117,0.220267,-2.226608,0
2025-06-04T19:30:40.766164,10.199299,0.23942,-2.25055,0
2025-06-04T19:30:40.767552,10.201694,0.23942,-2.224213,0
2025-06-04T19:30:40.768740,10.204087,0.248997,-2.226608,0
2025-06-04T19:30:40.768740,10.208876,0.23942,-2.226608,0
2025-06-04T19:30:40.768740,10.21127,0.229843,-2.255338,0
2025-06-04T19:30:40.768740,10.199299,0.232238,-2.217031,0
2025-06-04T19:30:40.768740,10.204087,0.237026,-2.226608,0
2025-06-04T19:30:40.768740,10.204087,0.246603,-2.214637,0
2025-06-04T19:30:40.768740,10.213664,0.222661,-2.229002,0
2025-06-04T19:30:40.768740,10.213664,0.244209,-2.243367,0
2025-06-04T19:30:40.768740,10.189722,0.237026,-2.238579,0
2025-06-04T19:30:40.768740,10.216059,0.232238,-2.257732,0
2025-06-04T19:30:40.768740,10.192117,0.237026,-2.212242,0
2025-06-04T19:30:40.768740,10.230424,0.222661,-2.240973,0
2025-06-04T19:30:40.774379,10.220847,0.237026,-2.209848,0
2025-06-04T19:30:40.774379,10.204087,0.244209,-2.219425,0
2025-06-04T19:30:40.774379,10.204087,0.227449,-2.236184,0
2025-06-04T19:30:40.775933,10.228029,0.246603,-2.240973,0
2025-06-04T19:30:40.775933,10.21127,0.241814,-2.248155,0
2025-06-04T19:30:40.775933,10.19451,0.229843,-2.245761,0
2025-06-04T19:30:40.775933,10.201694,0.234632,-2.217031,0
2025-06-04T19:30:40.775933,10.199299,0.225055,-2.224213,0
2025-06-04T19:30:40.775933,10.223241,0.237026,-2.221819,0
2025-06-04T19:30:40.775933,10.189722,0.23942,-2.229002,0
2025-06-04T19:30:40.775933,10.213664,0.244209,-2.240973,0
2025-06-04T19:30:40.775933,10.204087,0.217872,-2.260126,0
2025-06-04T19:30:40.775933,10.199299,0.225055,-2.23379,0
2025-06-04T19:30:40.782597,10.199299,0.227449,-2.243367,0
2025-06-04T19:30:40.782597,10.208876,0.23942,-2.23379,0
2025-06-04T19:30:40.784114,10.18254,0.229843,-2.229002,0
2025-06-04T19:30:40.784114,10.218452,0.232238,-2.25055,0
2025-06-04T19:30:40.784114,10.201694,0.237026,-2.229002,0
2025-06-04T19:30:40.784114,10.204087,0.237026,-2.25055,0
2025-06-04T19:30:40.784114,10.237606,0.227449,-2.231396,0
2025-06-04T19:30:40.784114,10.196905,0.244209,-2.224213,0
2025-06-04T19:30:40.784114,10.201694,0.232238,-2.238579,0
2025-06-04T19:30:40.790725,10.213664,0.237026,-2.219425,0
2025-06-04T19:30:40.790725,10.21127,0.244209,-2.226608,0
2025-06-04T19:30:40.790725,10.192117,0.253785,-2.23379,0
2025-06-04T19:30:40.790725,10.216059,0.232238,-2.219425,0
2025-06-04T19:30:40.790725,10.204087,0.237026,-2.23379,0
2025-06-04T19:30:40.790725,10.206482,0.229843,-2.229002,0
2025-06-04T19:30:40.790725,10.216059,0.237026,-2.221819,0
2025-06-04T19:30:40.790725,10.206482,0.229843,-2.214637,0
2025-06-04T19:30:40.790725,10.220847,0.248997,-2.245761,0
2025-06-04T19:30:40.790725,10.216059,0.244209,-2.219425,0
2025-06-04T19:30:40.790725,10.213664,0.237026,-2.209848,0
2025-06-04T19:30:40.790725,10.223241,0.23942,-2.209848,0
